Folder: CaloCem/calocem/DATA

Note: README.md
# TAInstCalorimetry- Interfacing with experimental results file from TAM Air calorimeters made easy.

After collecting multiple experimental results files from a TAM Air calorimeter you will be left with multiple *.xls*-files obtained as exports from the device control software. To achieve a side by side comparison of theses results and some basic extraction of relevant parameters, **TAInstCalorimetry** is here to get this done smoothly.

*Note: **TAInstCalorimetry** has been developed without involvement of **TA Instruments** and is thus independent from the company and its software.*

## Info / Downloads

[![PyPI - Downloads](https://img.shields.io/pypi/dm/tainstcalorimetry.svg?color=blue&label=Downloads&logo=pypi&logoColor=gold)](https://pepy.tech/project/tainstcalorimetry)
[![PyPI - Downloads](https://static.pepy.tech/personalized-badge/tainstcalorimetry?period=total&units=none&left_color=black&right_color=grey&left_text=Downloads)](https://pepy.tech/project/tainstcalorimetry)
[![PyPI - Python Version](https://img.shields.io/pypi/pyversions/tainstcalorimetry.svg?logo=python&label=Python&logoColor=gold)](https://pypi.org/project/tainstcalorimetry/) 

## Example Usage

Import the ```tacalorimetry``` module from **TAInstCalorimetry**.

```python
# import
import os
from TAInstCalorimetry import tacalorimetry
```

Next, we define where the exported files are stored. With this information at hand, a ```Measurement``` is initialized. Experimental raw data and the metadata passed in the course of the measurement are retrieved by the methods ```get_data()``` and ```get_information()```, respectively.

```python
# define data path
# "mycalodata" is the subfoldername where the calorimetry
# data files (both .csv or .xlsx) are stored

pathname = os.path.dirname(os.path.realpath(__file__))
path_to_data = pathname + os.sep + "mycalodata"

# Example: if projectfile is at "C:\Users\myname\myproject\myproject.py", then "mydata"
# refers to "C:\Users\myname\myproject\mycalodata" where the data is stored

# load experiments via class, i.e. instantiate tacalorimetry object with data
tam = tacalorimetry.Measurement(folder=path_to_data)

# get sample and information
data = tam.get_data()
info = tam.get_information()
```

Furthermore, the ```Measurement``` features a ```plot()```-method for readily visualizing the collected results.

```python
# make plot
tam.plot()
# show plot
tacalorimetry.plt.show()
```

Without further options specified, the ```plot()```-method yields the following.

![enter image description here](https://github.com/mj-hofmann/TAInstCalorimetry/blob/main/tests/plots/Figure%202022-08-08%20112743.png?raw=true)

The cumulated heat after a certain period of time from starting the measurement is a relevant quantity for answering different types of questions. For this purpose, the method ```get_cumulated_heat_at_hours``` returns on overview of this parameter for all the samples in the specified

File: calorimetry_data_6.csv
Time,Temperature,Heat flow,Heat,Normalized heat flow,Normalized heat,Time markers
-4148.43,20.0,NaN,NaN,NaN,NaN,
-4145.67,20,-0.00234237,NaN,-8.1644e-07,NaN,
-4125.42,20.0,-0.00221708,NaN,-7.72772e-07,NaN,
-4114.89,20.0,-0.0018023,NaN,-6.28199e-07,NaN,
-4093.11,20.0,-0.00171415,NaN,-5.97473e-07,NaN,
-4056.06,20.0,-0.00224232,NaN,-7.81569e-07,NaN,
-3997.18,20.0,-0.00176027,NaN,-6.1355e-07,NaN,
-3979.56,20.0,-0.00246145,NaN,-8.57946e-07,NaN,
-3925.42,20.0,-0.00243854,NaN,-8.49962e-07,NaN,
-3868.72,20.0,-0.002254,NaN,-7.85639e-07,NaN,
-3852.4,20.0,-0.00292466,NaN,-1.0194e-06,NaN,
-3789.96,20.0,-0.00234865,NaN,-8.18632e-07,NaN,
-3749.92,20.0,-0.00265335,NaN,-9.24833e-07,NaN,
-3710.62,20.0,-0.00194038,NaN,-6.76325e-07,NaN,
-3672.83,20.0,-0.00128988,NaN,-4.49592e-07,NaN,
-3642.45,20.0,-0.00200895,NaN,-7.00226e-07,NaN,
-3623.17,20.0,-0.00130499,NaN,-4.54859e-07,NaN,
-3612.66,20.0,-0.00141939,NaN,-4.94732e-07,NaN,
-3593.79,20.0,-0.00110935,NaN,-3.86669e-07,NaN,
-3584.17,20.0,-0.00148914,NaN,-5.19046e-07,NaN,
-3531.91,20.0,-0.0011711,NaN,-4.08192e-07,NaN,
-3492.68,20.0,-0.000954077,NaN,-3.32547e-07,NaN,
-3474.11,20.0,-0.00131118,NaN,-4.57018e-07,NaN,
-3450.63,20.0,-0.000804209,NaN,-2.8031e-07,NaN,
-3413.57,20.0,-0.0009252,NaN,-3.22482e-07,NaN,
-3355.44,20.0,-0.00122889,NaN,-4.28335e-07,NaN,
-3339.17,20.0,-0.000668852,NaN,-2.33131e-07,NaN,
-3322.15,20.0,-0.000873049,NaN,-3.04304e-07,NaN,
-3297.32,20.0,-0.000356951,NaN,-1.24417e-07,NaN,
-3271.4,20.0,-0.000569805,NaN,-1.98607e-07,NaN,
-3216.93,20.0,-0.000395322,NaN,-1.37791e-07,NaN,
-3205.17,20.0,-8.03391e-05,NaN,-2.80025e-08,NaN,
-3184.14,20.0,-0.000585678,NaN,-2.0414e-07,NaN,
-3162.32,20.0,-0.000315086,NaN,-1.09824e-07,NaN,
-3132.65,20.0,0.000230113,NaN,8.02067e-08,NaN,
-3118.67,20.0,-0.000463142,NaN,-1.6143e-07,NaN,
-3076.13,20.0,-0.000249978,NaN,-8.71306e-08,NaN,
-3016.55,20.0,-0.000249822,NaN,-8.70765e-08,NaN,
-2983.04,20.0,0.000534801,NaN,1.86407e-07,NaN,
-2968.1,20.0,0.000495875,NaN,1.72839e-07,NaN,
-2955.56,20.0,0.000802887,NaN,2.79849e-07,NaN,
-2940.82,20.0,0.000648351,NaN,2.25985e-07,NaN,
-2915.31,20.0,0.00127959,NaN,4.46006e-07,NaN,
-2876.58,20.0,0.00102891,NaN,3.58631e-07,NaN,
-2849.85,20.0,0.0017617,NaN,6.14047e-07,NaN,
-2814.3,20.0,0.00194818,NaN,6.79044e-07,NaN,
-2774.8,20.0,0.00216633,NaN,7.55083e-07,NaN,
-2759.67,20.0,0.0017021,NaN,5.93274e-07,NaN,
-2724.77,20.0,0.00219471,NaN,7.64974e-07,NaN,
-2701.74,20.0,0.00180251,NaN,6.28269e-07,NaN,
-2660.83,20.0,0.00278783,NaN,9.71707e-07,NaN,
-2612.67,20.0,0.00324586,NaN,1.13136e-06,NaN,
-2597.69,20.0,0.00299997,NaN,1.04565e-06,NaN,
-2579.75,20.0,0.00308988,NaN,1.07699e-06,NaN,
-2561.19,20.0,0.00273061,NaN,9.51764e-07,NaN,
-2538.58,20.0,0.00340226,NaN,1.18587e-06,NaN,
-2503.84,20,0.00323732,NaN,1.12838e-06,NaN,
-2411.81,20.0,0.0038972,NaN,1.35838e-06,NaN,
-2371.73,20.0,0.00360909,NaN,1.25796e-06,NaN,
-2355.46,20.0,0.0039701,NaN,1.38379e-06,NaN,
-2348.67,20.0,0.00409991,NaN,1.42904e-06,NaN,
7293.67,20.0,NaN,NaN,NaN,NaN,Reaction start. Measuring position. Signal correct
7294.33,20.0,0.223748,0.14769,7.7988e-05,5.14777e-05,
7558.33,20.0,119.54,1487.62,0.0416662,0.518516,
7611.33,20.0,305.392,13713.2,0.106446,4.77978,
7665.33,20.0,323.012,31135.8,0.112587,10.8525,
7740.9,20.0,267.348,53615.3,0.0931851,18.6878,
7831.33,20.0,197.419,74516.5,0.0688111,25.973,
7921.21,20.0,144.501,89762.1,0.0503665,31.2869,
8024.33,20.0,100.757,102276,0.0351191,35.6486,
8121.33,20.0,71.8151,110564,0.0250314,38.5375,
8201.46,20.0,54.5134,115592,0.0190009,40.29,
8315.83,20.0,37.1185,120762,0.0129378,42.0921,
8425.9,20,26.2656,124208,0.00915497,43.293,
8556.33,20.0,18.2354,127065,0.00635601,44.2888,
8737.8,20.0,12.4026,129773,0.00432298,45.2327,
8955.33,20.0,10.3758,132164,0.00361652,46.0662,
9103.9,20.0,12.9431,133826,0.00451137,46.6456,
9199.83,20.0,20.6761,135371,0.00720671,47.1842,
9315.77,20.0,40.4886,138867,0.0141124,48.4025,
9411.33,20.0,52.2812,143379,0.0182228,49.9752,
9509.27,20.0,54.5331,148678,0.0190077,51.8222,
9623.83,20.0,49.739,154697,0.0173367,53.9202,
9884.83,20.0,32.5888,165424,0.011359,57.6591,
10106.6,20.0,21.8395,171367,0.00761222,59.7304,
10351.8,20.0,15.0326,175799,0.00523966,61.2752,
10647.9,20.0,10.9554,179571,0.00381854,62.5902,
11095.5,20.0,8.18542,183771,0.00285306,64.054,
11787.6,20.0,6.19989,188668,0.00216099,65.7609,
12584.2,20.0,4.96738,193071,0.0017314,67.2956,
13363.3,20.0,4.22298,196631,0.00147193,68.5365,
14340.1,20.0,3.61264,200437,0.0012592,69.8631,
15249.2,20.0,3.22366,203535,0.00112362,70.943,
16228.4,20.0,2.91328,206533,0.00101543,71.9878,
17319.1,20.0,2.64665,209558,0.0009225,73.0423,
18544,20.0,2.41632,212654,0.000842216,74.1212,
19638.5,20.0,2.25194,215205,0.000784923,75.0104,
20496.3,20.0,2.14579,217090,0.000747921,75.6673,
21641.9,20.0,2.03438,219481,0.000709092,76.5008,
22586.6,20.0,1.96824,221370,0.000686036,77.1592,
23428.8,20.0,1.92448,223008,0.000670783,77.7302,
24712.2,20.0,1.88008,225447,0.000655308,78.5804,
25922.6,20.0,1.85065,227706,0.000645051,79.3676,
26878.9,20.0,1.81483,229461,0.000632565,79.9793,
27935.3,20.0,1.73485,231337,0.000604688,80.6332,
28887.3,20.0,1.66675,232956,0.000580951,81.1978,
29924.2,20.0,1.58487,234643,0.000552412,81.7856,
31106.3,20.0,1.49166,236461,0.000519923,82.4193,
32247.7,20.0,1.40445,238113,0.000489525,82.9951,
33209.3,20.0,1.33616,239430,0.000465725,83.4541,
34638.5,20.0,1.24309,241271,0.000433283,84.096,
35418.9,20.0,1.19776,242223,0.000417484,84.4278,
36309.8,20.0,1.15183,243269,0.000401476,84.7924,
37201,20.0,1.1387,244286,0.000396897,85.1467,
38275.8,20.0,1.26823,245563,0.000442048,85.5917,
39344,20.0,1.3822,246998,0.000481771,86.0919,
40176.9,20.0,1.347,248138,0.0004695,86.4895,
41446.8,20.0,1.24297,249783,0.00043324,87.0629,
42577.5,20.0,1.16082,251141,0.000404606,87.5361,
43607.3,20.0,1.10492,252306,0.000385125,87.9422,
44664,20.0,1.0629,253450,0.000370478,88.341,
45669.5,20.0,1.03796,254506,0.000361784,88.7088,
46781.6,20.0,1.03223,255655,0.000359788,89.1094,
47807,20.0,1.05737,256723,0.000368551,89.4816,
49021.1,20.0,1.18907,258068,0.000414453,89.9505,
49913.8,20.0,1.53379,259255,0.000534609,90.3643,
50735.6,20.0,2.41691,260824,0.000842421,90.9112,
51442,20.0,4.0017,263035,0.00139481,91.6817,
52096.6,20.0,6.36483,266385,0.00221848,92.8494,
52957.7,20.0,9.70072,273372,0.00338122,95.2848,
53643.9,20.0,10.9655,280552,0.00382208,97.7874,
54571.5,20.0,11.1763,290855,0.00389555,101.379,
55188.8,20.0,11.8468,297902,0.00412924,103.835,
55656.4,20.0,13.5551,303783,0.00472468,105.884,
56127.2,20.0,17.1644,310925,0.00598271,108.374,
56539.4,20.0,22.3452,319000,0.0077885,111.188,
57015.5,20.0,30.4833,331504,0.0106251,115.547,
57538.1,20.0,40.4255,350039,0.0140904,122.007,
57982.6,20.0,47.8454,369717,0.0166767,128.866,
58475.3,20.0,54.0909,394905,0.0188536,137.645,
59015.2,20.0,59.5606,425631,0.02076,148.355,
59473.8,20.0,62.7973,453760,0.0218882,158.16,
59864.8,20.0,63.5944,478547,0.022166,166.799,
60226.9,20.0,62.0675,501365,0.0216338,174.752,
60644.2,20.0,57.6665,526431,0.0200999,183.489,
61266.6,20.0,48.8352,559610,0.0170217,195.054,
61812,20.0,41.6839,584237,0.0145291,203.638,
62298.8,20.0,36.3796,603196,0.0126803,210.246,
62892.6,20.0,31.0986,623174,0.0108395,217.21,
63549.9,20.0,26.4129,642018,0.00920633,223.778,
64191.9,20.0,22.6742,657736,0.00790316,229.256,
64937.3,20.0,19.11,673263,0.00666086,234.668,
65667.2,20.0,16.2376,686131,0.00565967,239.153,
66617.8,20.0,13.2187,700072,0.00460743,244.012,
67495.5,20.0,11.0172,710670,0.00384008,247.707,
68554.3,20.0,8.95247,721192,0.00312042,251.374,
69357.6,20.0,7.7204,727872,0.00269097,253.702,
70289.8,20.0,6.56986,734512,0.00228995,256.017,
71264.9,20.0,5.61435,740434,0.0019569,258.081,
72208.3,20.0,4.87258,745368,0.00169835,259.801,
73386.1,20.0,4.13747,750657,0.00144213,261.644,
74570.3,20.0,3.55866,755200,0.00124038,263.228,
75510.8,20.0,3.18615,758367,0.00111054,264.332,
76395.3,20.0,2.89181,761051,0.00100795,265.267,
77556.8,20.0,2.57009,764216,0.000895815,266.37,
78755.7,20.0,2.30197,767131,0.00080236,267.386,
79759.7,20.0,2.11879,769347,0.000738512,268.159,
80650,20.0,1.98982,771174,0.000693559,268.795,
81763.4,20.0,1.89135,773340,0.000659236,269.55,
83042.8,20.0,1.71947,775646,0.000599327,270.354,
84250.9,20.0,1.59332,777646,0.000555357,271.051,
85284.7,20.0,1.49121,779239,0.000519766,271.607,
86331.5,20.0,1.39331,780749,0.000485645,272.133,
87291.1,20.0,1.31061,782045,0.000456816,272.585,
88575.3,20.0,1.22449,783670,0.0004268,273.151,
89655.2,20.0,1.16836,784961,0.000407236,273.601,
90500.9,20.0,1.13061,785932,0.000394077,273.939,
91634.9,20.0,1.08041,787184,0.000376582,274.376,
92586.9,20.0,1.05086,788198,0.000366281,274.729,
93657,20.0,1.02134,789306,0.00035599,275.116,
94563.8,20.0,0.999183,790223,0.000348269,275.435,
95590.8,20.0,0.976805,791237,0.000340469,275.789,
96954.8,20.0,0.950845,792551,0.00033142,276.247,
98249.2,20.0,0.926425,793766,0.000322909,276.67,
99301.8,20.0,0.906505,794731,0.000315965,277.006,
100205,20.0,0.892847,795544,0.000311205,277.29,
101232,20.0,0.87686,796452,0.000305633,277.606,
102312,20.0,0.859817,797389,0.000299692,277.933,
103535,20.0,0.841459,798429,0.000293293,278.295,
104668,20.0,0.824926,799373,0.000287531,278.624,
105946,20.0,0.805991,800415,0.000280931,278.987,
107067,20.0,0.790677,801310,0.000275593,279.299,
108171,20.0,0.776439,802175,0.000270631,279.601,
109328,20.0,0.762074,803064,0.000265623,279.911,
110544,20.0,0.749252,803983,0.000261154,280.231,
111804,20.0,0.735159,804917,0.000256242,280.557,
113395,20.0,0.716486,806072,0.000249734,280.959,
114325,20.0,0.707313,806733,0.000246537,281.19,
116002,20.0,0.690312,807905,0.000240611,281.598,
117245,20.0,0.677868,808755,0.000236273,281.894,
118387,20.0,0.666819,809523,0.000232422,282.162,
119840,20.0,0.654455,810483,0.000228112,282.497,
121156,20.0,0.642053,811337,0.00022379,282.794,
122975,20.0,0.626924,812491,0.000218516,283.196,
124308,20.0,0.615687,813319,0.0002146,283.485,
125717,20.0,0.605762,814179,0.00021114,283.785,
127122,20.0,0.59649,815024,0.000207909,284.079,
128037,20.0,0.591786,815568,0.000206269,284.269,
129208,20.0,0.584321,816256,0.000203667,284.509,
130361,20.0,0.577749,816926,0.000201376,284.743,
131483,20.0,0.570815,817571,0.00019896,284.967,
132925,20.0,0.561854,818388,0.000195836,285.252,
134163,20.0,0.556475,819080,0.000193961,285.493,
135428,20.0,0.548863,819779,0.000191308,285.737,
136817,20.0,0.541431,820536,0.000188718,286.001,
137730,20.0,0.537024,821028,0.000187182,286.172,
139104,20.0,0.529843,821760,0.000184679,286.427,
140703,20.0,0.523722,822603,0.000182545,286.721,
141682,20.0,0.519104,823113,0.000180935,286.899,
142517,20.0,0.516279,823545,0.000179951,287.05,
143731,20.0,0.511171,824168,0.00017817,287.267,
145453,20.0,0.504135,825042,0.000175718,287.571,
146545,20.0,0.499902,825590,0.000174243,287.762,
147696,20.0,0.495475,826163,0.0001727,287.962,
148634,20.0,0.491528,826625,0.000171324,288.123,
149692,20.0,0.48742,827144,0.000169892,288.304,
150947,20.0,0.483242,827753,0.000168436,288.516,
152271,20.0,0.480725,828391,0.000167558,288.738,
153484,20.0,0.476847,828972,0.000166207,288.941,
154578,20.0,0.473559,829492,0.000165061,289.122,
155675,20.0,0.469693,830009,0.000163713,289.303,
156480,20.0,0.466503,830386,0.000162601,289.434,
157969,20.0,0.460274,831076,0.00016043,289.675,
159373,20.0,0.456375,831720,0.000159071,289.899,
160417,20.0,0.45429,832196,0.000158344,290.065,
161808,20.0,0.451636,832826,0.000157419,290.284,
162883,20.0,0.447205,833309,0.000155875,290.453,
163965,20.0,0.443367,833791,0.000154537,290.621,
165171,20.0,0.440342,834324,0.000153483,290.806,
166505,20.0,0.43674,834909,0.000152227,291.01,
167995,20.0,0.432993,835557,0.000150921,291.236,
168946,20.0,0.431418,835968,0.000150372,291.38,
170025,20.0,0.427329,836432,0.000148947,291.541,
171041,20.0,0.425124,836865,0.000148178,291.692,
172106,20.0,0.42316,837317,0.000147494,291.85,
173368,20.0,0.420623,837849,0.00014661,292.035,
174333,20.0,0.41826,838253,0.000145786,292.176,
175436,20.0,0.414804,838713,0.000144581,292.336,
176796,20.0,0.410193,839274,0.000142974,292.532,
177987,20.0,0.407125,839760,0.000141905,292.701,
179274,20.0,0.403811,840282,0.00014075,292.883,
180348,20.0,0.401847,840714,0.000140065,293.034,
181607,20.0,0.400008,841219,0.000139424,293.21,
182897,20.0,0.395344,841732,0.000137799,293.389,
184028,20.0,0.392908,842178,0.000136949,293.544,
185163,20.0,0.390763,842623,0.000136202,293.699,
186545,20.0,0.387858,843161,0.000135189,293.887,
187678,20.0,0.386283,843600,0.00013464,294.04,
188697,20.0,0.383535,843992,0.000133682,294.176,
190486,20.0,0.382569,844678,0.000133346,294.416,
191547,20.0,0.380603,845084,0.000132661,294.557,
192808,20.0,0.376567,845561,0.000131254,294.723,
194251,20.0,0.373232,846103,0.000130091,294.912,
195290,20.0,0.373325,846491,0.000130124,295.047,
196688,20.0,0.369727,847010,0.00012887,295.228,
197483,20.0,0.368315,847304,0.000128377,295.331,
197511,20.0,0.3683,847314,0.000128372,295.334,
197514,20.0,0.368297,847315,0.000128371,295.335,