Folder: CaloCem/TAInstCalorimetry/DATA (part 2)

File: myexp3.csv
Time,Temperature [AmbientT(Therm3T)],Temperature [Temperature],Heat flow [Signal],Heat [Signal],Normalized heat flow [Signal],Normalized heat [Signal],Time markers
0.0,24.169,19.9997,NaN,NaN,NaN,NaN,Reaction start
32.0905,24.1369,19.9998,0.000909726,0.00311611,0.000227431,0.000779028,NaN
154.653,24.2303,20.0003,0.0939823,6.63128,0.0234956,1.65782,NaN
452.341,24.179,19.9999,0.0723739,32.7866,0.0180935,8.19664,NaN
916.403,24.1838,20.0004,0.0334386,57.5334,0.00835965,14.3834,NaN
1514.59,24.1724,19.9999,0.0118656,69.5613,0.0029664,17.3903,NaN
2435.84,24.1435,19.9999,0.00464342,76.2976,0.00116086,19.0744,NaN
3848.4,24.0672,19.9997,0.00243905,80.9001,0.000609763,20.225,NaN
5552.28,24.0958,20,0.00177126,84.3785,0.000442814,21.0946,NaN
7573.81,24.0975,20,0.00156257,87.6876,0.000390643,21.9219,NaN
9385.39,24.1254,19.9998,0.00170144,90.5483,0.00042536,22.6371,NaN
11115.2,24.12,19.9996,0.00207835,93.8324,0.000519588,23.4581,NaN
12974.6,24.1061,19.9998,0.00247537,98.0573,0.000618841,24.5143,NaN
14913.7,24.0975,20.0001,0.00295337,103.311,0.000738342,25.8277,NaN
16887,24.1258,19.9996,0.00350039,109.669,0.000875098,27.4172,NaN
18619.1,24.099,20.0002,0.00402216,116.18,0.00100554,29.0451,NaN
20548.7,24.0755,20.0001,0.0046387,124.53,0.00115968,31.1326,NaN
22927.8,24.0553,19.9999,0.00544258,136.517,0.00136064,34.1293,NaN
24864,24.005,19.9996,0.00610261,147.695,0.00152565,36.9238,NaN
26764.3,23.9973,19.9995,0.00673282,159.895,0.0016832,39.9738,NaN
28547.4,23.9759,19.9998,0.00729112,172.404,0.00182278,43.1011,NaN
30574.5,23.959,20.0001,0.00786091,187.775,0.00196523,46.9439,NaN
32349.7,23.9487,19.9999,0.0082854,202.118,0.00207135,50.5296,NaN
34225.1,23.9744,19.999,0.0086423,218.007,0.00216057,54.5017,NaN
36179.3,23.9456,19.9995,0.00891105,235.175,0.00222776,58.7938,NaN
38081.1,23.9527,19.9997,0.00906936,252.291,0.00226734,63.0727,NaN
39927.5,23.9438,19.9996,0.00913434,269.108,0.00228358,67.2769,NaN
41750.3,23.9614,19.9997,0.00912758,285.761,0.00228189,71.4403,NaN
43936.9,23.9516,20.0001,0.00904602,305.643,0.00226151,76.4108,NaN
45737.4,23.9471,19.9997,0.00894345,321.84,0.00223586,80.4599,NaN
47445.8,23.9723,20.0001,0.00890727,337.064,0.00222682,84.2661,NaN
49232.4,23.9303,20.0003,0.00905379,353.104,0.00226345,88.276,NaN
51302.4,23.9471,20,0.00909474,371.91,0.00227369,92.9776,NaN
53102,23.9599,19.9995,0.00904455,388.245,0.00226114,97.0612,NaN
55030.3,23.9454,19.9997,0.00890669,405.564,0.00222667,101.391,NaN
57087,23.9441,19.9998,0.00869407,423.673,0.00217352,105.918,NaN
59089.6,23.9167,20.0001,0.00844734,440.841,0.00211184,110.21,NaN
60875.3,23.9245,20,0.00821648,455.719,0.00205412,113.93,NaN
62815.8,23.91,19.9997,0.00797245,471.425,0.00199311,117.856,NaN
64861.8,23.9106,19.9998,0.00773293,487.488,0.00193323,121.872,NaN
66820,23.8819,20,0.00752282,502.423,0.0018807,125.606,NaN
68728.8,23.8946,20.0002,0.00733121,516.598,0.0018328,129.149,NaN
70603.3,23.9013,19.9998,0.00715298,530.172,0.00178825,132.543,NaN
72608.7,23.9147,19.9999,0.00696342,544.327,0.00174085,136.082,NaN
74450.1,23.8588,19.9998,0.00678554,556.985,0.00169638,139.246,NaN
76242.1,23.8819,19.9997,0.0066053,568.985,0.00165133,142.246,NaN
78211.9,23.8372,19.9999,0.00640154,581.796,0.00160038,145.449,NaN
80231,23.8442,19.9998,0.00618681,594.505,0.0015467,148.626,NaN
82129.7,23.8473,19.9999,0.00598116,606.057,0.00149529,151.514,NaN
84031.9,23.8663,20.0002,0.00577611,617.239,0.00144403,154.31,NaN
85895.5,23.8819,19.9998,0.00557935,627.82,0.00139484,156.955,NaN
87871.7,23.8996,20,0.00537828,638.645,0.00134457,159.661,NaN
89766.6,23.9023,19.9997,0.00519368,648.66,0.00129842,162.165,NaN
91976.3,23.9031,19.9997,0.00498803,659.908,0.00124701,164.977,NaN
93644,23.8933,19.9997,0.00484005,668.102,0.00121001,167.025,NaN
95605.9,23.8998,20,0.0046715,677.431,0.00116788,169.358,NaN
97382.2,23.9367,20.0001,0.00452362,685.597,0.0011309,171.399,NaN
99263.1,23.9069,20.0001,0.00437082,693.961,0.0010927,173.49,NaN
101297,23.9179,19.9997,0.00421377,702.691,0.00105344,175.673,NaN
103169,23.918,19.9995,0.00407531,710.447,0.00101883,177.612,NaN
104867,23.9106,19.9993,0.00395363,717.263,0.000988408,179.316,NaN
106725,23.9361,20,0.00382565,724.488,0.000956412,181.122,NaN
108686,23.9316,19.9997,0.00370098,731.867,0.000925244,182.967,NaN
110583,23.8979,20,0.00359127,738.781,0.000897817,184.695,NaN
112464,23.9355,19.9998,0.00348974,745.44,0.000872434,186.36,NaN
114234,23.9364,19.9997,0.00340454,751.541,0.000851135,187.885,NaN
116385,23.9254,19.9998,0.00330811,758.758,0.000827027,189.689,NaN
118539,23.9575,20,0.00322124,765.79,0.00080531,191.447,NaN
120312,23.9561,19.9999,0.00315914,771.443,0.000789785,192.861,NaN
122461,23.9635,20,0.00309329,778.161,0.000773322,194.54,NaN
124369,23.9664,19.9998,0.00304304,784.011,0.00076076,196.003,NaN
126158,23.9718,19.999,0.00300156,789.418,0.00075039,197.354,NaN
127958,23.9756,20,0.00296268,794.787,0.000740671,198.697,NaN
129905,23.9935,19.9998,0.00292194,800.515,0.000730485,200.129,NaN
131792,23.9677,19.9998,0.00288355,805.994,0.000720888,201.498,NaN
133887,24.0153,20,0.00284092,811.988,0.000710231,202.997,NaN
135882,24.0086,20.0003,0.00280202,817.619,0.000700506,204.405,NaN
137560,23.9903,19.9989,0.00277289,822.294,0.000693221,205.573,NaN
139550,24.0248,20.0001,0.00273599,827.776,0.000683998,206.944,NaN
141987,24.0312,19.9998,0.00269206,834.389,0.000673014,208.597,NaN
144588,23.9722,19.9998,0.00264515,841.331,0.000661288,210.333,NaN
146899,24.0103,19.9999,0.00260445,847.397,0.000651113,211.849,NaN
149036,24.0153,19.9999,0.0025667,852.921,0.000641676,213.23,NaN
150953,24.0104,19.9996,0.00253531,857.811,0.000633828,214.453,NaN
153362,23.9823,19.9998,0.00249511,863.869,0.000623778,215.967,NaN
155956,24.0007,20,0.00245681,870.292,0.000614203,217.573,NaN
158154,23.9812,20.0001,0.00242487,875.658,0.000606218,218.914,NaN
160617,24.0258,19.9998,0.00238846,881.585,0.000597115,220.396,NaN
162687,24.0009,19.9999,0.00235777,886.498,0.000589443,221.625,NaN
164939,24.0309,20,0.00232419,891.77,0.000581047,222.942,NaN
167190,24.0492,19.9997,0.00229062,896.965,0.000572655,224.241,NaN
169170,23.9842,19.9999,0.00225988,901.468,0.000564969,225.367,NaN
171370,24.0333,19.9996,0.00222312,906.399,0.00055578,226.6,NaN
173248,24.0121,19.9998,0.00219271,910.546,0.000548178,227.636,NaN
175709,24.0227,19.9998,0.00215344,915.894,0.000538361,228.974,NaN
178122,24.0728,19.9992,0.0021186,921.048,0.000529649,230.262,NaN
180417,24.0452,19.9998,0.00208443,925.871,0.000521107,231.468,NaN
182720,24.0454,19.9999,0.00204859,930.63,0.000512146,232.657,NaN
184978,24.0574,19.9998,0.00201252,935.215,0.000503129,233.804,NaN
187022,24.0573,20,0.00198127,939.296,0.000495318,234.824,NaN
189021,24.0306,20.0003,0.00194801,943.224,0.000487002,235.806,NaN
191131,24.0692,19.9997,0.00191218,947.298,0.000478046,236.824,NaN
193461,24.0814,19.9996,0.0018731,951.707,0.000468276,237.927,NaN
195843,24.0804,19.9996,0.00183832,956.127,0.000459579,239.032,NaN
197970,24.0831,19.9998,0.0018101,960.007,0.000452524,240.002,NaN
199932,24.0597,19.9999,0.00178218,963.53,0.000445545,240.883,NaN
202086,24.1034,19.9999,0.00174765,967.332,0.000436912,241.833,NaN
204111,24.1035,20.0004,0.00171537,970.839,0.000428842,242.71,NaN
206297,24.1199,19.9999,0.00168255,974.553,0.000420637,243.638,NaN
208495,24.1286,20,0.00165344,978.218,0.00041336,244.555,NaN
210685,24.0914,20,0.00162223,981.807,0.000405557,245.452,NaN
212731,24.0926,19.9999,0.00158636,985.09,0.000396589,246.272,NaN
214884,24.1166,19.9998,0.00154519,988.462,0.000386297,247.116,NaN
216967,24.0932,19.9999,0.0015062,991.639,0.000376549,247.91,NaN
219245,24.0908,20.0001,0.00146408,995.022,0.000366021,248.756,NaN
221151,24.1093,19.9997,0.00142944,997.78,0.000357359,249.445,NaN
223408,24.149,19.9997,0.00139735,1000.97,0.000349338,250.242,NaN
225320,24.1766,19.9994,0.00137565,1003.62,0.000343913,250.905,NaN
227324,24.1199,19.9998,0.0013532,1006.35,0.000338301,251.588,NaN
229679,24.1216,19.9998,0.00132297,1009.51,0.000330743,252.376,NaN
231829,24.1374,19.9996,0.00129136,1012.32,0.000322839,253.079,NaN
234151,24.1505,20,0.00125875,1015.28,0.000314687,253.819,NaN
236496,24.1275,19.9996,0.00122775,1018.19,0.000306938,254.548,NaN
238700,24.1342,19.9997,0.00119976,1020.87,0.00029994,255.217,NaN
240698,24.1497,19.9998,0.00117575,1023.24,0.000293938,255.81,NaN
242912,24.174,19.9991,0.00115025,1025.81,0.000287564,256.454,NaN
245255,24.1284,19.9999,0.00112365,1028.48,0.000280912,257.12,NaN
247512,24.1528,19.9999,0.00109815,1030.99,0.000274539,257.746,NaN
249837,24.1328,19.9996,0.00107123,1033.51,0.000267807,258.377,NaN
252138,24.1452,19.9999,0.00104488,1035.94,0.00026122,258.986,NaN
254333,24.1544,19.9996,0.00101819,1038.21,0.000254548,259.552,NaN
256488,24.145,19.9995,0.00099014,1040.37,0.000247535,260.093,NaN
258731,24.1677,19.9998,0.000962145,1042.56,0.000240536,260.64,NaN
259136,24.156,19.9997,0.000957422,1042.95,0.000239356,260.737,NaN
259475,24.156,19.9995,NaN,NaN,NaN,NaN,NaN
259872,24.1696,20.0001,NaN,NaN,NaN,NaN,NaN
260554,24.1511,19.9995,NaN,NaN,NaN,NaN,NaN

File: myexp4.csv
Time,Temperature [AmbientT(Therm3T)],Temperature [Temperature],Heat flow [Signal],Heat [Signal],Normalized heat flow [Signal],Normalized heat [Signal],Time markers
0.0,24.4833,20.0003,NaN,NaN,NaN,NaN,Reaction start
32.5357,24.4945,20.0002,0.00103,0.00298851,0.000257501,0.000747127,NaN
141.536,24.5238,20.0002,0.0757723,4.54624,0.0189431,1.13656,NaN
334.036,24.5889,20.0002,0.0792891,20.6224,0.0198223,5.15561,NaN
692.609,24.54,20.0002,0.0508395,43.7701,0.0127099,10.9425,NaN
1045.1,24.5133,19.9999,0.0239851,56.5052,0.00599628,14.1263,NaN
1540.91,24.5304,19.9998,0.0097718,64.1335,0.00244295,16.0334,NaN
2282.45,24.5752,19.9999,0.00460272,68.9872,0.00115068,17.2468,NaN
3347.12,24.5507,19.9998,0.00282727,72.7468,0.000706817,18.1867,NaN
4386.82,24.5789,20.0004,0.00218814,75.3136,0.000547036,18.8284,NaN
5507.41,24.5861,19.9997,0.001846,77.5526,0.0004615,19.3881,NaN
6710.1,24.6185,20,0.00166847,79.6513,0.000417117,19.9128,NaN
7849.82,24.6127,19.9999,0.00160105,81.5083,0.000400264,20.3771,NaN
9048.1,24.5813,19.9997,0.00170638,83.4619,0.000426595,20.8655,NaN
10124.8,24.6251,20.0001,0.00189505,85.401,0.000473762,21.3503,NaN
11325.6,24.6242,20.0001,0.00211986,87.8089,0.000529964,21.9522,NaN
12476.6,24.6121,19.9997,0.00236017,90.3854,0.000590043,22.5963,NaN
13631.1,24.5964,19.9999,0.00262187,93.2588,0.000655468,23.3147,NaN
14839.2,24.6428,20.0001,0.00292104,96.6043,0.00073026,24.1511,NaN
15841,24.6183,19.9995,0.00318875,99.6636,0.000797187,24.9159,NaN
17129.8,24.6688,19.9994,0.00355362,104.005,0.000888406,26.0014,NaN
18268.4,24.6594,20.0001,0.00389509,108.245,0.000973773,27.0612,NaN
19445.4,24.6123,20.0007,0.00426429,113.045,0.00106607,28.2613,NaN
20687,24.6644,19.9992,0.00466963,118.59,0.00116741,29.6475,NaN
21903.1,24.6832,19.9997,0.00507853,124.516,0.00126963,31.1291,NaN
23035.8,24.6565,19.9998,0.00546604,130.487,0.00136651,32.6218,NaN
24164.5,24.6966,20.0001,0.00585359,136.875,0.0014634,34.2187,NaN
25487,24.693,19.9996,0.00630494,144.915,0.00157624,36.2288,NaN
26612.4,24.6859,20.0004,0.00667961,152.223,0.0016699,38.0557,NaN
27781,24.7444,20,0.00705562,160.25,0.00176391,40.0624,NaN
28962.4,24.7003,19.9997,0.00741531,168.8,0.00185383,42.2,NaN
29980.3,24.7163,19.9998,0.00770503,176.497,0.00192626,44.1242,NaN
31131.3,24.5923,19.9996,0.00800876,185.543,0.00200219,46.3858,NaN
32468.2,24.5639,20.0001,0.00832156,196.464,0.00208039,49.1159,NaN
33598.9,24.5439,19.9999,0.00855109,206.006,0.00213777,51.5015,NaN
34743.3,24.4844,19.9996,0.00875001,215.909,0.0021875,53.9772,NaN
35925.6,24.4726,20,0.00892113,226.359,0.00223028,56.5898,NaN
37104.4,24.4921,19.9996,0.00905722,236.959,0.0022643,59.2398,NaN
38470.9,24.4412,19.9995,0.00917292,249.419,0.00229323,62.3548,NaN
39802.3,24.4597,19.9999,0.00924703,261.685,0.00231176,65.4211,NaN
41080.3,24.3957,19.9997,0.00928238,273.529,0.00232059,68.3822,NaN
42137.2,24.4015,19.9998,0.00928826,283.344,0.00232207,70.836,NaN
43320.5,24.392,19.9992,0.00927369,294.328,0.00231842,73.5819,NaN
44618.3,24.3115,19.9999,0.00924048,306.343,0.00231012,76.5856,NaN
45756.8,24.3516,20,0.00920307,316.842,0.00230077,79.2106,NaN
46860.4,24.3388,19.9994,0.00916937,326.98,0.00229234,81.7449,NaN
47994.3,24.3266,19.9992,0.00915392,337.365,0.00228848,84.3412,NaN
49204.1,24.331,20,0.00916184,348.443,0.00229046,87.1107,NaN
50347.1,24.3565,19.9997,0.00917321,358.922,0.0022933,89.7305,NaN
51527.6,24.2761,19.9999,0.00916801,369.751,0.002292,92.4377,NaN
52859.5,24.292,20.0004,0.00912869,381.939,0.00228217,95.4847,NaN
54137.6,24.2619,20.0004,0.00906614,393.568,0.00226654,98.392,NaN
55326.4,24.2947,19.9995,0.00899089,404.304,0.00224772,101.076,NaN
56434.3,24.3003,19.9998,0.00890352,414.218,0.00222588,103.554,NaN
57661.8,24.231,19.9993,0.00878885,425.079,0.00219721,106.27,NaN
58767.9,24.2487,20,0.00867213,434.736,0.00216803,108.684,NaN
59920.1,24.2642,19.9999,0.00854031,444.652,0.00213508,111.163,NaN
61101,24.2386,19.9998,0.00839736,454.654,0.00209934,113.664,NaN
62402.4,24.253,19.9999,0.00823535,465.478,0.00205884,116.369,NaN
63796.7,24.2572,20.0001,0.00805752,476.836,0.00201438,119.209,NaN
64846.2,24.2376,19.9996,0.00792331,485.223,0.00198083,121.306,NaN
65902.2,24.2213,19.9997,0.00778933,493.519,0.00194733,123.38,NaN
67132,24.2274,20,0.00763718,503.003,0.0019093,125.751,NaN
68381,24.1815,19.9996,0.00748677,512.447,0.00187169,128.112,NaN
69644.3,24.1824,19.9997,0.00733729,521.811,0.00183432,130.453,NaN
70789.9,24.1801,19.9996,0.00720634,530.141,0.00180159,132.535,NaN
71999.6,24.1774,19.9996,0.00707339,538.778,0.00176835,134.694,NaN
73186.9,24.1489,19.9995,0.00694678,547.1,0.0017367,136.775,NaN
74408.9,24.1418,20,0.00682121,555.512,0.0017053,138.878,NaN
75527.7,24.128,19.9997,0.00670997,563.08,0.00167749,140.77,NaN
76634.5,24.1403,19.9999,0.00660231,570.447,0.00165058,142.612,NaN
77857.6,24.1182,19.9998,0.00648641,578.452,0.0016216,144.613,NaN
79170.5,24.1245,20,0.00636614,586.888,0.00159153,146.722,NaN
80284.8,24.1325,19.9999,0.00626525,593.926,0.00156631,148.481,NaN
81420.7,24.0918,20,0.00616414,600.984,0.00154104,150.246,NaN
82642.9,24.1206,19.9998,0.00605803,608.454,0.00151451,152.113,NaN
83982.8,24.111,20,0.00594439,616.494,0.0014861,154.124,NaN
85165.2,24.1288,19.9998,0.00584716,623.465,0.00146179,155.866,NaN
86410.5,24.1252,19.9997,0.00574676,630.684,0.00143669,157.671,NaN
87430.7,24.1383,20.0001,0.00566626,636.506,0.00141657,159.126,NaN
88639.5,24.1827,19.9997,0.00557456,643.3,0.00139364,160.825,NaN
89831.4,24.1823,20.0001,0.0054854,649.89,0.00137135,162.473,NaN
90980.7,24.1585,19.9997,0.00540178,656.147,0.00135045,164.037,NaN
92129.5,24.1912,19.9997,0.00532085,662.305,0.00133021,165.576,NaN
93478.3,24.1705,19.9997,0.00522962,669.421,0.00130741,167.355,NaN
94779.9,24.2289,19.9998,0.00514383,676.172,0.00128596,169.043,NaN
95911.6,24.1845,20.0001,0.00507201,681.952,0.001268,170.488,NaN
96991.5,24.2224,19.9998,0.00500479,687.393,0.0012512,171.848,NaN
98350.9,24.174,19.9999,0.00492431,694.142,0.00123108,173.535,NaN
99657.2,24.1958,19.9997,0.00484866,700.525,0.00121217,175.131,NaN
100904,24.1502,19.9998,0.00477883,706.528,0.00119471,176.632,NaN
102095,24.1829,20.0001,0.00471358,712.181,0.0011784,178.045,NaN
103433,24.1301,20.0003,0.0046417,718.436,0.00116042,179.609,NaN
104734,24.244,19.9997,0.00457381,724.433,0.00114345,181.108,NaN
106056,24.344,19.9999,0.00450479,730.436,0.0011262,182.609,NaN
107349,24.2433,19.9997,0.00443749,736.216,0.00110937,184.054,NaN
108708,24.2406,20.0001,0.00436611,742.197,0.00109153,185.549,NaN
110052,24.2529,19.9999,0.00429501,748.018,0.00107375,187.004,NaN
111413,24.2384,19.9999,0.00422416,753.814,0.00105604,188.453,NaN
112815,24.2957,19.9998,0.00414953,759.684,0.00103738,189.921,NaN
114177,24.2837,19.999,0.00407729,765.288,0.00101932,191.322,NaN
115423,24.2346,19.9999,0.00400992,770.325,0.00100248,192.581,NaN
116652,24.2248,19.9995,0.00394268,775.213,0.000985669,193.803,NaN
118008,24.199,19.9998,0.00386812,780.509,0.000967031,195.127,NaN
119257,24.199,19.9998,0.00379771,785.295,0.000949427,196.324,NaN
120819,24.1528,19.9995,0.00371016,791.161,0.00092754,197.79,NaN
122009,24.1852,19.9993,0.00364524,795.538,0.000911309,198.884,NaN
123472,24.1604,19.9999,0.0035684,800.813,0.0008921,200.203,NaN
124727,24.1523,20,0.00350365,805.249,0.000875912,201.312,NaN
125961,24.1923,20,0.00344305,809.534,0.000860762,202.384,NaN
127232,24.147,20.0002,0.00338458,813.873,0.000846146,203.468,NaN
[...]
135207,24.0782,20.0003,0.00307243,839.558,0.000768108,209.89,NaN
136478,24.1255,19.9998,0.00302978,843.438,0.000757444,210.86,NaN
137739,24.0534,19.9999,0.00298874,847.232,0.000747186,211.808,NaN
139094,24.0676,19.9997,0.00294684,851.252,0.00073671,212.813,NaN
140455,24.0605,20.0002,0.0029067,855.238,0.000726676,213.81,NaN
141597,24.0203,19.9997,0.002874,858.537,0.000718501,214.634,NaN
142999,24.0541,19.9997,0.00283455,862.539,0.000708637,215.635,NaN
144352,24.0398,19.9995,0.00279827,866.347,0.000699568,216.587,NaN
145809,24.0317,19.9994,0.00276025,870.398,0.000690064,217.6,NaN
147067,24.0155,20.0003,0.00273005,873.852,0.000682512,218.463,NaN
148323,24.0065,19.9997,0.00270081,877.261,0.000675202,219.315,NaN
149636,24.0074,20.0002,0.0026712,880.789,0.000667801,220.197,NaN
150998,24.0056,19.9995,0.00264234,884.406,0.000660586,221.101,NaN
152445,23.975,20.0002,0.00261231,888.207,0.000653078,222.052,NaN
153753,23.9736,19.9992,0.00258535,891.605,0.000646339,222.901,NaN
155224,23.9513,19.9998,0.0025568,895.388,0.000639199,223.847,NaN
156761,23.9435,20.0001,0.00252832,899.296,0.00063208,224.824,NaN
158008,23.9308,19.9995,0.00250608,902.436,0.00062652,225.609,NaN
159269,23.9417,20,0.00248441,905.583,0.000621103,226.396,NaN
160538,23.9042,20.0001,0.0024637,908.722,0.000615926,227.18,NaN
161723,23.9032,19.9998,0.00244494,911.63,0.000611235,227.907,NaN
163223,23.8881,20.0001,0.00242283,915.28,0.000605708,228.82,NaN
164466,23.8736,20,0.00240474,918.279,0.000601185,229.57,NaN
165782,23.8586,19.9995,0.00238628,921.433,0.000596569,230.358,NaN
167205,23.8713,19.9997,0.00236593,924.813,0.000591482,231.203,NaN
168494,23.8308,20.0001,0.00234925,927.852,0.000587313,231.963,NaN
169703,23.8243,19.9999,0.00233266,930.683,0.000583165,232.671,NaN
170945,23.839,19.9997,0.00231688,933.57,0.000579221,233.393,NaN
172201,23.8664,19.9997,0.00230157,936.471,0.000575391,234.118,NaN
172772,23.8747,20,0.00229469,937.783,0.000573672,234.446,NaN
173040,23.888,20,NaN,NaN,NaN,NaN,NaN
173381,23.8729,20.0002,NaN,NaN,NaN,NaN,NaN
173668,23.9017,19.9995,NaN,NaN,NaN,NaN,NaN
174033,23.8816,19.9999,NaN,NaN,NaN,NaN,NaN
174388,23.937,20.0001,NaN,NaN,NaN,NaN,NaN
174786,23.9074,19.9996,NaN,NaN,NaN,NaN,NaN
175259,23.8873,19.9996,NaN,NaN,NaN,NaN,NaN
175571,23.8923,19.9999,NaN,NaN,NaN,NaN,NaN
175941,23.9168,20.0001,NaN,NaN,NaN,NaN,NaN
176284,23.9131,20,NaN,NaN,NaN,NaN,NaN
176652,23.9286,19.9999,NaN,NaN,NaN,NaN,NaN
176952,23.9167,19.9998,NaN,NaN,NaN,NaN,NaN
177287,23.9242,20.0003,NaN,NaN,NaN,NaN,NaN
177605,23.9106,20.0001,NaN,NaN,NaN,NaN,NaN
177848,23.9667,19.9998,NaN,NaN,NaN,NaN,NaN
178131,23.9489,20,NaN,NaN,NaN,NaN,NaN
178527,23.9403,19.9998,NaN,NaN,NaN,NaN,NaN
178829,23.9841,20,NaN,NaN,NaN,NaN,NaN
179139,23.9715,20.0002,NaN,NaN,NaN,NaN,NaN
179677,23.9737,20.0001,NaN,NaN,NaN,NaN,NaN
179941,24.0041,19.9997,NaN,NaN,NaN,NaN,NaN
180266,23.996,19.9995,NaN,NaN,NaN,NaN,NaN
180532,23.9916,19.9996,NaN,NaN,NaN,NaN,NaN
180803,23.9494,20,NaN,NaN,NaN,NaN,NaN
180991,23.9927,19.9997,NaN,NaN,NaN,NaN,NaN
181277,23.9624,19.9996,NaN,NaN,NaN,NaN,NaN
181495,24.0076,19.9994,NaN,NaN,NaN,NaN,NaN
181843,23.9545,19.9999,NaN,NaN,NaN,NaN,NaN
182161,24.0107,19.9997,NaN,NaN,NaN,NaN,NaN
182464,23.9787,19.9993,NaN,NaN,NaN,NaN,NaN
182801,23.9894,19.9997,NaN,NaN,NaN,NaN,NaN
183098,23.9917,20.0001,NaN,NaN,NaN,NaN,NaN
183590,23.9787,20,NaN,NaN,NaN,NaN,NaN
184052,24.0418,20,NaN,NaN,NaN,NaN,NaN
184488,24.0389,19.9995,NaN,NaN,NaN,NaN,NaN
184709,23.9987,19.9992,NaN,NaN,NaN,NaN,NaN
185007,24.0674,19.9994,NaN,NaN,NaN,NaN,NaN
185308,24.1718,19.9999,NaN,NaN,NaN,NaN,NaN
185704,24.1483,19.9999,NaN,NaN,NaN,NaN,NaN
186041,24.2128,19.9996,NaN,NaN,NaN,NaN,NaN
186282,24.2085,20,NaN,NaN,NaN,NaN,NaN