Folder: CaloCem/TAInstCalorimetry/DATA (part 4)

File: myexp7.csv
Time,Temperature [AmbientT(Therm3T)],Temperature [Temperature],Heat flow [Signal],Heat [Signal],Normalized heat flow [Signal],Normalized heat [Signal],Time markers
0.0,24.474,20.0006,NaN,NaN,NaN,NaN,Reaction start
34.399,24.4724,20.0003,0.000411264,0.00237648,0.000102816,0.000594119,NaN
166.899,24.4776,20.0002,0.0421896,2.79193,0.0105474,0.697983,NaN
378.024,24.5259,20,0.060577,14.3974,0.0151442,3.59936,NaN
665.024,24.6072,20.0002,0.0554679,31.5021,0.013867,7.87554,NaN
1048.09,24.5449,20,0.0337123,48.5182,0.00842807,12.1295,NaN
1483.02,24.523,19.9998,0.0177868,59.3325,0.0044467,14.8331,NaN
1985.15,24.5582,19.9999,0.00920318,65.8074,0.0023008,16.4519,NaN
2704.96,24.5594,19.9996,0.0045763,70.4577,0.00114407,17.6144,NaN
3537.46,24.5733,19.9998,0.00280837,73.4037,0.000702092,18.3509,NaN
4467.77,24.5864,19.9999,0.00206191,75.6198,0.000515477,18.905,NaN
5556.91,24.5966,20.0001,0.00167321,77.6265,0.000418301,19.4066,NaN
6722.41,24.5672,20.0002,0.00148602,79.4517,0.000371505,19.8629,NaN
7915.29,24.6016,19.9998,0.00142419,81.1779,0.000356047,20.2945,NaN
9025.82,24.6198,19.9998,0.00142205,82.7526,0.000355513,20.6882,NaN
10274.9,24.5788,20,0.0016949,84.6819,0.000423726,21.1705,NaN
11567.6,24.6161,20.0003,0.0019705,87.0557,0.000492624,21.7639,NaN
12756.4,24.6164,19.9999,0.00221391,89.5416,0.000553478,22.3854,NaN
13828.7,24.6392,19.9999,0.00244867,92.0402,0.000612167,23.01,NaN
15036.7,24.6185,19.9994,0.00273038,95.1665,0.000682594,23.7916,NaN
16095.6,24.6483,19.9995,0.00299277,98.1956,0.000748193,24.5489,NaN
17384.9,24.6675,19.9994,0.00332966,102.269,0.000832415,25.5673,NaN
18468.8,24.643,19.9998,0.00362654,106.038,0.000906636,26.5095,NaN
19640.5,24.6521,19.9999,0.00395913,110.481,0.000989782,27.6203,NaN
20800.7,24.6913,20.0002,0.00429916,115.271,0.00107479,28.8176,NaN
22076.1,24.643,19.9995,0.00468169,120.997,0.00117042,30.2492,NaN
23224.4,24.6871,20.0001,0.00503358,126.574,0.0012584,31.6435,NaN
24527.3,24.6898,19.9996,0.00543297,133.393,0.00135824,33.3482,NaN
25862.4,24.7295,19.9993,0.00583669,140.918,0.00145917,35.2294,NaN
27108.2,24.7161,19.9998,0.00620491,148.419,0.00155123,37.1048,NaN
28224.7,24.7247,19.9994,0.00652157,155.525,0.00163039,38.8813,NaN
29579.3,24.7616,20.0004,0.00688338,164.607,0.00172084,41.1518,NaN
30840.5,24.682,19.9992,0.00719335,173.488,0.00179834,43.372,NaN
31986.8,24.5827,19.9996,0.00744416,181.88,0.00186104,45.4699,NaN
33159.6,24.5448,19.9999,0.0076747,190.748,0.00191868,47.687,NaN
34461.2,24.5269,19.9998,0.00789893,200.887,0.00197473,50.2219,NaN
35603.3,24.5169,19.9998,0.00806614,210.007,0.00201654,52.5017,NaN
36797.4,24.4729,19.9991,0.00821193,219.728,0.00205298,54.9321,NaN
38138.1,24.4782,19.9998,0.00834125,230.829,0.00208531,57.7072,NaN
39356.4,24.4586,19.9999,0.00842684,241.046,0.00210671,60.2616,NaN
40546.8,24.4288,19.9997,0.00848126,251.113,0.00212031,62.7782,NaN
41636.4,24.4324,19.9997,0.00850824,260.371,0.00212706,65.0927,NaN
42884,24.4112,19.9998,0.00851529,270.993,0.00212882,67.7482,NaN
44033.2,24.3795,19.9997,0.00850176,280.773,0.00212544,70.1932,NaN
45315.8,24.3594,20,0.00846732,291.657,0.00211683,72.9142,NaN
46539.2,24.3674,20.0003,0.00841899,301.988,0.00210475,75.497,NaN
47762.4,24.3395,19.9994,0.00836056,312.251,0.00209014,78.0627,NaN
48902.6,24.3183,19.9999,0.00830443,321.752,0.00207611,80.4379,NaN
50115.2,24.3105,19.9999,0.00826807,331.795,0.00206702,82.9487,NaN
51448,24.2957,19.9998,0.00833114,342.841,0.00208279,85.7103,NaN
52700.1,24.2878,20.0002,0.00841761,353.334,0.0021044,88.3335,NaN
53867.5,24.2983,20.0002,0.00844188,363.178,0.00211047,90.7945,NaN
55016.6,24.2664,20.0001,0.00843219,372.877,0.00210805,93.2192,NaN
56177.7,24.2205,19.9996,0.00838736,382.644,0.00209684,95.6611,NaN
57493.5,24.251,19.9995,0.00830217,393.627,0.00207554,98.4068,NaN
58664.2,24.2816,20.0002,0.00820208,403.29,0.00205052,100.822,NaN
59904.1,24.2465,19.9999,0.00807838,413.385,0.0020196,103.346,NaN
61098.2,24.2535,19.9997,0.00794538,422.953,0.00198634,105.738,NaN
62262.7,24.2459,19.9996,0.00780739,432.125,0.00195185,108.031,NaN
63603,24.2228,19.9999,0.00764341,442.48,0.00191085,110.62,NaN
64866.3,24.2307,19.9997,0.00748841,452.039,0.0018721,113.01,NaN
66008.2,24.2161,19.9996,0.00734625,460.508,0.00183656,115.127,NaN
67088,24.2266,19.9995,0.00721345,468.369,0.00180336,117.092,NaN
68266.6,24.208,19.9994,0.00707107,476.787,0.00176777,119.197,NaN
69461.5,24.1768,20,0.00693035,485.151,0.00173259,121.288,NaN
70707.8,24.1792,19.9999,0.00678781,493.7,0.00169695,123.425,NaN
71786.8,24.1515,19.9996,0.0066672,500.959,0.0016668,125.24,NaN
72995,24.1779,19.9996,0.00653674,508.935,0.00163418,127.234,NaN
74204.8,24.1447,20.0003,0.00641095,516.766,0.00160274,129.192,NaN
75302.1,24.1456,19.9999,0.00630024,523.74,0.00157506,130.935,NaN
76396.2,24.1432,19.9996,0.00619157,530.574,0.00154789,132.643,NaN
77479.4,24.1108,19.9997,0.00608834,537.224,0.00152208,134.306,NaN
78738.6,24.1302,19.9998,0.00597155,544.817,0.00149289,136.204,NaN
80029.3,24.1037,19.9995,0.0058549,552.449,0.00146372,138.112,NaN
81134.4,24.1324,19.9999,0.00575622,558.864,0.00143905,139.716,NaN
82212.4,24.1306,20,0.00566174,565.018,0.00141543,141.255,NaN
83386.4,24.145,19.9998,0.0055611,571.606,0.00139028,142.901,NaN
84521.5,24.1083,19.9998,0.00546547,577.864,0.00136637,144.466,NaN
85680.6,24.1346,19.9993,0.00536936,584.143,0.00134234,146.036,NaN
87054.1,24.1303,19.9996,0.00525854,591.442,0.00131464,147.86,NaN
88165.3,24.1369,19.9995,0.00517118,597.236,0.00129279,149.309,NaN
89232,24.1485,19.9998,0.00508927,602.708,0.00127232,150.677,NaN
90467.8,24.1361,19.9992,0.00499762,608.941,0.0012494,152.235,NaN
91654.9,24.1783,20.0002,0.00491202,614.822,0.00122801,153.706,NaN
92742.2,24.1649,19.9998,0.00483673,620.122,0.00120918,155.03,NaN
93923.4,24.1792,20.0002,0.00475712,625.788,0.00118928,156.447,NaN
95092.7,24.1815,19.9995,0.00468102,631.306,0.00117026,157.826,NaN
96231.1,24.2007,19.9999,0.00460974,636.593,0.00115244,159.148,NaN
97502.5,24.2045,19.9996,0.00453229,642.405,0.00113307,160.601,NaN
98781.9,24.1905,19.9997,0.00445691,648.155,0.00111423,162.039,NaN
100049,24.2089,19.9998,0.00438555,653.757,0.00109639,163.439,NaN
101318,24.1819,20.0002,0.00431796,659.28,0.00107949,164.82,NaN
102796,24.1634,19.9997,0.00424191,665.606,0.00106048,166.401,NaN
104208,24.1936,19.9999,0.00417227,671.545,0.00104307,167.886,NaN
105537,24.2829,20,0.00410952,677.048,0.00102738,169.262,NaN
106897,24.3298,20.0002,0.00405126,682.598,0.00101282,170.649,NaN
108209,24.2534,19.9999,0.00399591,687.875,0.000998978,171.969,NaN
109519,24.2729,19.9999,0.00394257,693.072,0.000985643,173.268,NaN
111069,24.2519,19.9996,0.00387888,699.134,0.000969719,174.784,NaN
112364,24.2545,20.0001,0.00382745,704.124,0.000956862,176.031,NaN
113664,24.2762,19.9997,0.00377699,709.07,0.000944248,177.267,NaN
115050,24.2724,19.9996,0.00372423,714.267,0.000931057,178.567,NaN
116426,24.2388,20,0.00367269,719.357,0.000918172,179.839,NaN
117756,24.1886,20,0.00362191,724.207,0.000905477,181.052,NaN
119151,24.1759,19.9996,0.00356783,729.223,0.000891957,182.306,NaN
120591,24.1732,19.9996,0.00351229,734.318,0.000878072,183.579,NaN
121843,24.2111,20.0001,0.00346405,738.687,0.000866012,184.672,NaN
122990,24.2003,19.9994,0.00341833,742.635,0.000854583,185.659,NaN
124397,24.1523,19.9995,0.00336358,747.403,0.000840894,186.851,NaN
125651,24.1396,20.0003,0.00331467,751.592,0.000828668,187.898,NaN
[...]
135321,24.076,19.9997,0.00294102,781.8,0.000735254,195.45,NaN
136506,24.0842,19.9995,0.00289946,785.261,0.000724865,196.315,NaN
137845,24.0615,19.9999,0.00285588,789.113,0.000713971,197.278,NaN
139365,24.0732,20,0.00280909,793.417,0.000702273,198.354,NaN
140730,24.0718,20.0002,0.00276951,797.226,0.000692376,199.306,NaN
142099,24.0398,20.0001,0.00273103,800.99,0.000682759,200.247,NaN
143391,24.0744,20.0002,0.00269737,804.498,0.000674343,201.124,NaN
144769,24.017,19.9997,0.00266239,808.191,0.000665597,202.048,NaN
146079,24.0193,19.9998,0.00263045,811.657,0.000657613,202.914,NaN
147386,24.0126,19.9995,0.00259828,815.074,0.00064957,203.769,NaN
148653,24.008,19.9997,0.00256931,818.349,0.000642328,204.587,NaN
150082,24.0163,19.9995,0.00253676,821.997,0.000634191,205.499,NaN
151392,24.0371,19.9995,0.00250741,825.299,0.000626854,206.325,NaN
152565,23.9892,19.9998,0.00248111,828.225,0.000620278,207.056,NaN
153867,23.9857,19.9997,0.00245348,831.439,0.000613369,207.86,NaN
155364,23.9707,20.0001,0.00242241,835.087,0.000605603,208.772,NaN
156716,23.962,19.9997,0.00239484,838.344,0.00059871,209.586,NaN
158145,23.9418,19.9999,0.00236624,841.746,0.000591559,210.436,NaN
159589,23.9077,19.9998,0.00233783,845.142,0.000584459,211.285,NaN
160919,23.9155,20,0.0023129,848.235,0.000578224,212.059,NaN
162251,23.9117,19.9992,0.00228686,851.298,0.000571715,212.825,NaN
163766,23.8817,19.9999,0.00225953,854.741,0.000564882,213.685,NaN
165067,23.8646,19.9996,0.00223656,857.666,0.000559141,214.416,NaN
166299,23.8834,20,0.00221562,860.41,0.000553904,215.102,NaN
167784,23.8393,19.9997,0.00219081,863.68,0.000547703,215.92,NaN
169003,23.8452,20,0.00217134,866.34,0.000542834,216.585,NaN
170300,23.8532,19.9998,0.00215115,869.143,0.000537788,217.286,NaN
171599,23.8534,19.9999,0.00213158,871.925,0.000532896,217.981,NaN
172799,23.8945,19.9996,0.00211516,874.473,0.000528791,218.618,NaN
173127,23.8974,20,NaN,NaN,NaN,NaN,NaN
173434,23.9056,19.9992,NaN,NaN,NaN,NaN,NaN
173690,23.8597,20,NaN,NaN,NaN,NaN,NaN
174029,23.9066,19.9998,NaN,NaN,NaN,NaN,NaN
174343,23.8491,19.9994,NaN,NaN,NaN,NaN,NaN
174704,23.9077,20,NaN,NaN,NaN,NaN,NaN
175033,23.9287,19.9997,NaN,NaN,NaN,NaN,NaN
175352,23.9304,19.9997,NaN,NaN,NaN,NaN,NaN
175699,23.9219,20,NaN,NaN,NaN,NaN,NaN
176105,23.9442,20.0001,NaN,NaN,NaN,NaN,NaN
176480,23.9137,20.0002,NaN,NaN,NaN,NaN,NaN
176903,23.92,20.0001,NaN,NaN,NaN,NaN,NaN
177219,23.9174,19.9999,NaN,NaN,NaN,NaN,NaN
177486,23.9241,19.9998,NaN,NaN,NaN,NaN,NaN
177802,23.9649,20.0005,NaN,NaN,NaN,NaN,NaN
178077,23.9558,20.0001,NaN,NaN,NaN,NaN,NaN
178389,23.9513,20,NaN,NaN,NaN,NaN,NaN
178726,23.9527,19.9998,NaN,NaN,NaN,NaN,NaN
179010,23.9517,20,NaN,NaN,NaN,NaN,NaN
179324,23.9622,20.0005,NaN,NaN,NaN,NaN,NaN
179688,23.9739,19.9997,NaN,NaN,NaN,NaN,NaN
180112,23.947,20.0001,NaN,NaN,NaN,NaN,NaN
180529,23.942,19.9997,NaN,NaN,NaN,NaN,NaN
180806,23.9371,19.9997,NaN,NaN,NaN,NaN,NaN
181095,23.9572,20.0001,NaN,NaN,NaN,NaN,NaN
181256,24.0081,19.9997,NaN,NaN,NaN,NaN,NaN
181532,23.9616,19.9996,NaN,NaN,NaN,NaN,NaN
181829,23.9561,19.9991,NaN,NaN,NaN,NaN,NaN
182192,23.9891,19.9997,NaN,NaN,NaN,NaN,NaN
182518,23.981,19.9998,NaN,NaN,NaN,NaN,NaN
182903,23.9803,19.9998,NaN,NaN,NaN,NaN,NaN
183238,24.0097,19.9998,NaN,NaN,NaN,NaN,NaN
183592,23.9837,20.0002,NaN,NaN,NaN,NaN,NaN
183866,23.9539,20.0003,NaN,NaN,NaN,NaN,NaN
184147,23.9861,19.9995,NaN,NaN,NaN,NaN,NaN
184454,23.9949,20,NaN,NaN,NaN,NaN,NaN
184798,23.9693,19.9995,NaN,NaN,NaN,NaN,NaN
185156,24.0414,19.9996,NaN,NaN,NaN,NaN,NaN
185490,24.0722,20.0003,NaN,NaN,NaN,NaN,NaN
185826,24.1285,20,NaN,NaN,NaN,NaN,NaN
186112,24.1122,19.9998,NaN,NaN,NaN,NaN,NaN
186363,24.1936,20.0006,NaN,NaN,NaN,NaN,NaN

File: myexp8.csv
Time,Temperature [AmbientT(Therm3T)],Temperature [Temperature],Heat flow [Signal],Heat [Signal],Normalized heat flow [Signal],Normalized heat [Signal],Time markers
0.0,24.4859,20.0003,NaN,NaN,NaN,NaN,Reaction start
35.8566,24.4869,20.0001,0.000520502,0.00256754,0.000130125,0.000641885,NaN
172.107,24.4688,20.0003,0.0455237,3.20438,0.0113809,0.801094,NaN
373.357,24.4883,20.0001,0.0613788,14.6249,0.0153447,3.65622,NaN
670.357,24.5929,20.0003,0.0544612,32.3091,0.0136153,8.07729,NaN
1056.42,24.5496,19.9998,0.0321422,48.8996,0.00803554,12.2249,NaN
1491.17,24.5604,19.9998,0.0167369,59.1334,0.00418423,14.7833,NaN
2014.73,24.5531,19.9996,0.00844302,65.4009,0.00211076,16.3502,NaN
2679.61,24.5504,19.9995,0.004488,69.4706,0.001122,17.3676,NaN
3656.04,24.5507,19.9999,0.00263741,72.768,0.000659352,18.192,NaN
4714.32,24.5337,20.0001,0.00195275,75.1431,0.000488187,18.7858,NaN
5832.75,24.5907,20.0002,0.0016334,77.1261,0.00040835,19.2815,NaN
6965.12,24.5912,19.9998,0.00148895,78.8816,0.000372238,19.7204,NaN
8007.59,24.6225,19.9998,0.00144421,80.4055,0.000361053,20.1014,NaN
9163.01,24.6111,19.9998,0.00148389,82.0728,0.000370971,20.5182,NaN
10225.2,24.5421,19.9999,0.00172233,83.7737,0.000430582,20.9434,NaN
11316.8,24.6246,19.9996,0.00194212,85.776,0.000485531,21.444,NaN
12489.7,24.6201,19.9998,0.00217373,88.1882,0.000543434,22.0471,NaN
13651.7,24.6249,20,0.00242293,90.857,0.000605732,22.7143,NaN
14737.7,24.6435,20,0.00267519,93.6236,0.000668798,23.4059,NaN
15920.1,24.6532,19.9995,0.00296991,96.9594,0.000742477,24.2398,NaN
17174.3,24.607,19.9999,0.00329904,100.888,0.000824759,25.2221,NaN
18351.8,24.6584,19.9999,0.0036277,104.965,0.000906925,26.2412,NaN
19504.8,24.6924,19.9995,0.00396476,109.341,0.000991189,27.3351,NaN
20608.9,24.725,20,0.00430013,113.902,0.00107503,28.4756,NaN
21744.2,24.6421,19.9999,0.00465383,118.984,0.00116346,29.746,NaN
22989.4,24.6697,19.9999,0.00505174,125.026,0.00126294,31.2565,NaN
24421.5,24.7064,20.0001,0.00551186,132.59,0.00137797,33.1476,NaN
25563.7,24.6807,19.9995,0.00587594,139.094,0.00146899,34.7736,NaN
26810.3,24.7137,19.9999,0.00626461,146.663,0.00156615,36.6658,NaN
27952.7,24.7225,20.0001,0.00660756,154.017,0.00165189,38.5043,NaN
29137.3,24.7391,19.9998,0.00694343,162.045,0.00173586,40.5113,NaN
30337.7,24.7186,19.9997,0.00726386,170.576,0.00181597,42.6439,NaN
31548.6,24.6016,19.9998,0.00754982,179.548,0.00188745,44.8871,NaN
32835.7,24.5554,20.0001,0.00781729,189.442,0.00195432,47.3604,NaN
34042.7,24.5424,19.9999,0.00803383,199.011,0.00200846,49.7528,NaN
35272,24.5128,19.9998,0.008224,209.006,0.002056,52.2516,NaN
36335.1,24.4919,20.0003,0.00836021,217.825,0.00209005,54.4562,NaN
37571.3,24.472,20,0.00848515,228.24,0.00212129,57.0601,NaN
38918.6,24.4488,19.9996,0.00858466,239.744,0.00214616,59.936,NaN
40038,24.4424,20.0003,0.00863746,249.385,0.00215937,62.3463,NaN
41320.9,24.4479,20,0.00866763,260.489,0.00216691,65.1223,NaN
42517.8,24.4024,19.9998,0.00866876,270.866,0.00216719,67.7166,NaN
43705.5,24.3906,20,0.00864979,281.153,0.00216245,70.2882,NaN
45009.2,24.3388,20,0.00860953,292.405,0.00215238,73.1013,NaN
46211.1,24.3847,19.9994,0.00855857,302.723,0.00213964,75.6808,NaN
47401.6,24.3758,19.9995,0.00850308,312.879,0.00212577,78.2198,NaN
48453.5,24.3119,19.9998,0.00846169,321.801,0.00211542,80.4501,NaN
49568.3,24.3542,20.0003,0.0084603,331.226,0.00211507,82.8065,NaN
50738.1,24.3149,19.9999,0.00853143,341.16,0.00213286,85.29,NaN
51945,24.2901,20.0003,0.00859502,351.5,0.00214875,87.875,NaN
53137.5,24.2842,19.9991,0.0086127,361.764,0.00215317,90.4411,NaN
54334.8,24.284,20.0002,0.00858865,372.065,0.00214716,93.0163,NaN
55505.7,24.3297,19.9997,0.00853154,382.092,0.00213289,95.5229,NaN
56707.7,24.276,19.9999,0.0084438,392.296,0.00211095,98.074,NaN
57941.4,24.2447,19.9997,0.00833058,402.645,0.00208265,100.661,NaN
59097.6,24.2199,20.0001,0.00820923,412.208,0.00205231,103.052,NaN
60363.3,24.2416,19.9998,0.0080644,422.508,0.0020161,105.627,NaN
61502.8,24.2552,20.0002,0.00792626,431.62,0.00198156,107.905,NaN
62715.7,24.2451,19.9998,0.00777512,441.142,0.00194378,110.286,NaN
64011.8,24.2312,20.0002,0.00761257,451.114,0.00190314,112.779,NaN
65222.7,24.2466,20.0002,0.00746171,460.241,0.00186543,115.06,NaN
66455,24.2253,20,0.00730877,469.341,0.00182719,117.335,NaN
67561.7,24.2346,19.9999,0.0071769,477.357,0.00179422,119.339,NaN
68691.4,24.1805,20.0001,0.00704334,485.388,0.00176084,121.347,NaN
69906.9,24.166,19.9997,0.00690435,493.864,0.00172609,123.466,NaN
71279.8,24.1888,19.9996,0.00675363,503.239,0.00168841,125.81,NaN
72362.3,24.1856,19.9997,0.00663952,510.487,0.00165988,127.622,NaN
73458.8,24.1474,19.9995,0.00652751,517.706,0.00163188,129.427,NaN
74681.1,24.1809,19.9996,0.00640604,525.61,0.00160151,131.403,NaN
75764.5,24.1311,19.9997,0.00630136,532.494,0.00157534,133.123,NaN
76804,24.1915,19.9994,0.00620394,538.993,0.00155099,134.748,NaN
77928.9,24.1389,20.0002,0.00610254,545.914,0.00152564,136.479,NaN
79205.9,24.1023,20,0.0059891,553.634,0.00149728,138.409,NaN
80501.6,24.1133,19.9999,0.0058762,561.322,0.00146905,140.33,NaN
81627.7,24.1544,19.9995,0.00578083,567.885,0.00144521,141.971,NaN
82663.8,24.109,20.0001,0.00569471,573.829,0.00142368,143.457,NaN
83791.8,24.1105,20.0005,0.00560364,580.201,0.00140091,145.05,NaN
85002.8,24.1281,19.9994,0.00550789,586.93,0.00137697,146.732,NaN
86149.2,24.1693,19.9999,0.0054186,593.192,0.00135465,148.298,NaN
87315.2,24.1688,19.9998,0.00532968,599.458,0.00133242,149.865,NaN
88453.8,24.1566,19.9999,0.00524523,605.478,0.00131131,151.37,NaN
89592.7,24.1491,20,0.00516089,611.404,0.00129022,152.851,NaN
90643,24.1628,19.9999,0.00508753,616.786,0.00127188,154.196,NaN
91925.3,24.1677,20.0003,0.00500129,623.254,0.00125032,155.813,NaN
93101.5,24.1877,19.9998,0.00492597,629.092,0.00123149,157.273,NaN
94312.2,24.1825,19.9997,0.00485056,635.009,0.00121264,158.752,NaN
95530.2,24.1826,19.9999,0.00477769,640.872,0.00119442,160.218,NaN
96811.9,24.1769,19.9994,0.00470302,646.948,0.00117576,161.737,NaN
98107.7,24.192,19.9997,0.00462942,652.994,0.00115736,163.249,NaN
99535.6,24.2174,19.9997,0.00455157,659.549,0.00113789,164.887,NaN
101013,24.185,20.0001,0.00447581,666.216,0.00111895,166.554,NaN
102344,24.1919,19.9998,0.00440786,672.127,0.00110197,168.032,NaN
103651,24.1783,20.0003,0.00434018,677.844,0.00108505,169.461,NaN
105105,24.2033,19.9994,0.00427118,684.107,0.0010678,171.027,NaN
106333,24.3435,20.0007,0.00421665,689.317,0.00105416,172.329,NaN
107750,24.256,19.9999,0.00415636,695.249,0.00103909,173.812,NaN
109036,24.2415,20,0.004103,700.558,0.00102575,175.139,NaN
110352,24.2385,20.0001,0.00404692,705.921,0.00101173,176.48,NaN
111886,24.2604,19.9997,0.0039801,712.08,0.000995025,178.02,NaN
113261,24.3191,19.9997,0.00392006,717.511,0.000980016,179.378,NaN
114790,24.2617,19.9997,0.0038536,723.454,0.000963399,180.863,NaN
116134,24.2205,20.0003,0.00379453,728.593,0.000948632,182.148,NaN
117541,24.2135,20.0001,0.00373159,733.888,0.000932897,183.472,NaN
118904,24.1895,20,0.00366936,738.929,0.000917339,184.732,NaN
120185,24.1824,19.9998,0.00360944,743.593,0.000902361,185.898,NaN
121506,24.1764,20.0004,0.00354721,748.319,0.000886803,187.08,NaN
122766,24.1671,20.0001,0.00348512,752.75,0.000871281,188.187,NaN
124064,24.1515,19.9992,0.00342178,757.232,0.000855445,189.308,NaN
125310,24.1521,20.0001,0.00336078,761.459,0.000840196,190.365,NaN
[...]
139036,24.0957,19.9998,0.00282702,803.567,0.000706756,200.892,NaN
140261,24.0647,19.9996,0.00279235,807.009,0.000698086,201.752,NaN
141521,24.0342,20,0.00275654,810.504,0.000689134,202.626,NaN
142944,24.0637,19.9999,0.00271797,814.4,0.000679494,203.6,NaN
144233,24.0615,19.9989,0.00268358,817.88,0.000670895,204.47,NaN
145433,24.0331,20.0005,0.00265265,821.082,0.000663163,205.271,NaN
146779,24.0415,19.9999,0.00261718,824.629,0.000654295,206.157,NaN
148135,24.0535,19.9998,0.00258325,828.154,0.000645811,207.038,NaN
149630,23.9945,19.9998,0.00254665,831.988,0.000636662,207.997,NaN
151206,24.0239,19.9997,0.00250819,835.972,0.000627047,208.993,NaN
152464,23.9941,19.9998,0.00247848,839.109,0.00061962,209.777,NaN
153862,24.008,20.0002,0.00244844,842.551,0.000612111,210.638,NaN
155208,23.9693,20.0001,0.00241959,845.828,0.000604899,211.457,NaN
156629,23.9688,19.9995,0.00238938,849.244,0.000597345,212.311,NaN
157956,23.957,19.9996,0.00236326,852.398,0.000590815,213.1,NaN
159350,23.917,19.9998,0.00233598,855.673,0.000583995,213.918,NaN
160724,23.8968,19.9999,0.00231001,858.864,0.000577502,214.716,NaN
162037,23.907,20.0002,0.00228438,861.881,0.000571096,215.47,NaN
163402,23.8711,19.9998,0.00225925,864.98,0.000564812,216.245,NaN
164820,23.8737,20,0.0022347,868.169,0.000558675,217.042,NaN
166152,23.8495,19.9995,0.00221176,871.129,0.00055294,217.782,NaN
167532,23.8329,19.9994,0.00218936,874.167,0.00054734,218.542,NaN
168813,23.8423,20,0.00216822,876.957,0.000542054,219.239,NaN
169943,23.8425,20.0003,0.00215075,879.396,0.000537688,219.849,NaN
171124,23.8949,19.9997,0.00213161,881.926,0.000532903,220.482,NaN
172435,23.8798,19.9996,0.00211261,884.708,0.000528154,221.177,NaN
172695,23.8808,20,0.00210902,885.257,0.000527256,221.314,NaN
172932,23.8329,20.0002,NaN,NaN,NaN,NaN,NaN
173192,23.8778,20.0001,NaN,NaN,NaN,NaN,NaN
173451,23.9215,19.9995,NaN,NaN,NaN,NaN,NaN
173755,23.8758,19.9999,NaN,NaN,NaN,NaN,NaN
174022,23.9315,19.9995,NaN,NaN,NaN,NaN,NaN
174262,23.8857,19.9999,NaN,NaN,NaN,NaN,NaN
174625,23.8725,19.9995,NaN,NaN,NaN,NaN,NaN
174851,23.9233,20,NaN,NaN,NaN,NaN,NaN
175380,23.9117,19.9995,NaN,NaN,NaN,NaN,NaN
175764,23.868,20.0001,NaN,NaN,NaN,NaN,NaN
175978,23.8805,19.9999,NaN,NaN,NaN,NaN,NaN
176451,23.9336,19.9996,NaN,NaN,NaN,NaN,NaN
176786,23.9433,19.9995,NaN,NaN,NaN,NaN,NaN
177132,23.9328,19.9997,NaN,NaN,NaN,NaN,NaN
177423,23.9185,19.9995,NaN,NaN,NaN,NaN,NaN
177749,23.9398,20.0008,NaN,NaN,NaN,NaN,NaN
178030,23.9268,20.0002,NaN,NaN,NaN,NaN,NaN
178398,23.9626,19.9999,NaN,NaN,NaN,NaN,NaN
178694,23.947,19.9996,NaN,NaN,NaN,NaN,NaN
178999,23.9802,20,NaN,NaN,NaN,NaN,NaN
179273,23.9837,20.0002,NaN,NaN,NaN,NaN,NaN
179587,23.9475,20.0001,NaN,NaN,NaN,NaN,NaN
180133,23.9661,19.9993,NaN,NaN,NaN,NaN,NaN
180501,23.9762,19.9994,NaN,NaN,NaN,NaN,NaN
180783,23.9709,20,NaN,NaN,NaN,NaN,NaN
181058,23.9552,19.9997,NaN,NaN,NaN,NaN,NaN
181331,23.9834,19.9998,NaN,NaN,NaN,NaN,NaN
181593,23.9863,19.9997,NaN,NaN,NaN,NaN,NaN
181828,23.9835,19.9994,NaN,NaN,NaN,NaN,NaN
182092,24.0152,19.9999,NaN,NaN,NaN,NaN,NaN
182449,23.985,19.9997,NaN,NaN,NaN,NaN,NaN
182734,23.956,19.9998,NaN,NaN,NaN,NaN,NaN
183081,23.9801,19.9998,NaN,NaN,NaN,NaN,NaN
183382,23.9303,20,NaN,NaN,NaN,NaN,NaN
183813,23.9884,20.0004,NaN,NaN,NaN,NaN,NaN
184099,24.0061,20.0002,NaN,NaN,NaN,NaN,NaN
184381,23.9711,19.9997,NaN,NaN,NaN,NaN,NaN
184649,23.9796,20.0002,NaN,NaN,NaN,NaN,NaN
185008,23.991,19.9993,NaN,NaN,NaN,NaN,NaN
185246,24.0499,19.9996,NaN,NaN,NaN,NaN,NaN
185526,24.0338,20.0006,NaN,NaN,NaN,NaN,NaN
185936,24.1268,19.9998,NaN,NaN,NaN,NaN,NaN
186194,24.1635,19.9997,NaN,NaN,NaN,NaN,NaN
186435,24.1889,20.0003,NaN,NaN,NaN,NaN,NaN