Folder: CaloCem/TAInstCalorimetry/DATA

Note: README.md
# TAInstCalorimetry- Interfacing with experimental results file from TAM Air calorimeters made easy.

After collecting multiple experimental results files from a TAM Air calorimeter you will be left with multiple *.xls*-files obtained as exports from the device control software. To achieve a side by side comparison of theses results and some basic extraction of relevant parameters, **TAInstCalorimetry** is here to get this done smoothly.

*Note: **TAInstCalorimetry** has been developed without involvement of **TA Instruments** and is thus independent from the company and its software.*

## Info / Downloads

[![PyPI - Downloads](https://img.shields.io/pypi/dm/tainstcalorimetry.svg?color=blue&label=Downloads&logo=pypi&logoColor=gold)](https://pepy.tech/project/tainstcalorimetry)
[![PyPI - Downloads](https://static.pepy.tech/personalized-badge/tainstcalorimetry?period=total&units=none&left_color=black&right_color=grey&left_text=Downloads)](https://pepy.tech/project/tainstcalorimetry)
[![PyPI - Python Version](https://img.shields.io/pypi/pyversions/tainstcalorimetry.svg?logo=python&label=Python&logoColor=gold)](https://pypi.org/project/tainstcalorimetry/) 

## Example Usage

Import the ```tacalorimetry``` module from **TAInstCalorimetry**.

```python
# import
import os
from TAInstCalorimetry import tacalorimetry
```

Next, we define where the exported files are stored. With this information at hand, a ```Measurement``` is initialized. Experimental raw data and the metadata passed in the course of the measurement are retrieved by the methods ```get_data()``` and ```get_information()```, respectively.

```python
# define data path
# "mycalodata" is the subfoldername where the calorimetry
# data files (both .csv or .xlsx) are stored

pathname = os.path.dirname(os.path.realpath(__file__))
path_to_data = pathname + os.sep + "mycalodata"

# Example: if projectfile is at "C:\Users\myname\myproject\myproject.py", then "mydata"
# refers to "C:\Users\myname\myproject\mycalodata" where the data is stored

# load experiments via class, i.e. instantiate tacalorimetry object with data
tam = tacalorimetry.Measurement(folder=path_to_data)

# get sample and information
data = tam.get_data()
info = tam.get_information()
```

Furthermore, the ```Measurement``` features a ```plot()```-method for readily visualizing the collected results.

```python
# make plot
tam.plot()
# show plot
tacalorimetry.plt.show()
```

Without further options specified, the ```plot()```-method yields the following.

![enter image description here](https://github.com/mj-hofmann/TAInstCalorimetry/blob/main/tests/plots/Figure%202022-08-08%20112743.png?raw=true)

The cumulated heat after a certain period of time from starting the measurement is a relevant quantity for answering different types of questions. For this purpose, the method ```get_cumulated_heat_at_hours``` returns on overview of this parameter for all the samples in the specified

File: myexp1.csv
Time,Temperature [AmbientT(Therm3T)],Temperature [Temperature],Heat flow [Signal],Heat [Signal],Normalized heat flow [Signal],Normalized heat [Signal],Time markers
0.0,25.2783,20,NaN,NaN,NaN,NaN,Reaction start
33.7452,25.2783,19.9999,0.00443777,0.0173748,0.000554722,0.00217185,NaN
180.151,25.3162,20.0002,0.137461,13.2427,0.0171827,1.65534,NaN
574.433,25.3445,20.0002,0.120126,66.1042,0.0150158,8.26302,NaN
1019.78,25.3462,20.0001,0.0570477,104.63,0.00713097,13.0788,NaN
1592.5,25.2827,19.9996,0.0228857,125.66,0.00286071,15.7075,NaN
2456.74,25.2809,19.9994,0.00901273,137.995,0.00112659,17.2494,NaN
3723.92,25.2442,19.9995,0.00466422,145.948,0.000583027,18.2435,NaN
5505.93,25.2294,19.9999,0.00334786,152.806,0.000418483,19.1007,NaN
7522.53,25.2591,20,0.00306501,159.166,0.000383126,19.8957,NaN
9354.07,25.2243,19.9999,0.00340387,164.903,0.000425484,20.6129,NaN
11242.7,25.2441,19.9999,0.00427632,172.182,0.000534539,21.5227,NaN
13104,25.2587,20.0003,0.00513733,180.926,0.000642167,22.6157,NaN
14935.6,25.1955,19.9997,0.00610135,191.2,0.000762668,23.9,NaN
16741.4,25.1968,20.0001,0.00715877,203.157,0.000894846,25.3946,NaN
18602.8,25.216,19.9998,0.0083512,217.577,0.0010439,27.1971,NaN
20559.5,25.1932,20,0.00969644,235.222,0.00121206,29.4027,NaN
22438,25.1573,19.9999,0.0110486,254.699,0.00138108,31.8374,NaN
24420.1,25.1711,19.9993,0.0124968,278.033,0.00156209,34.7542,NaN
26208.9,25.1179,19.9994,0.0137739,301.538,0.00172174,37.6923,NaN
28043.3,25.1265,20,0.0150054,327.95,0.00187567,40.9938,NaN
30037.5,25.096,19.9999,0.0162024,359.097,0.0020253,44.8871,NaN
31955.2,25.1101,19.9999,0.0171626,391.121,0.00214533,48.8901,NaN
33821.5,25.0525,19.9999,0.0179018,423.872,0.00223773,52.984,NaN
35618.7,25.0572,19.9995,0.0184287,456.545,0.00230358,57.0681,NaN
37551.5,25.0751,19.9997,0.0188079,492.559,0.00235099,61.5699,NaN
39545.3,25.081,19.9997,0.0190124,530.29,0.00237655,66.2862,NaN
41317.7,25.0857,19.9996,0.0190506,564.041,0.00238132,70.5051,NaN
43105.5,25.0868,19.9996,0.0189683,598.043,0.00237104,74.7553,NaN
45179.4,25.1041,20.0002,0.0187556,637.179,0.00234445,79.6474,NaN
47238.9,25.0632,19.9995,0.0184715,675.517,0.00230894,84.4396,NaN
49186.1,25.0756,19.9997,0.0183184,711.281,0.0022898,88.9101,NaN
51338.1,25.0329,20.0001,0.0185623,750.964,0.00232029,93.8705,NaN
53092.5,25.0164,20,0.0186057,783.589,0.00232572,97.9486,NaN
55104.4,24.9935,19.9997,0.0184759,820.923,0.00230949,102.615,NaN
56994,25.0154,20,0.0182037,855.599,0.00227546,106.95,NaN
58789.9,25.0361,19.9999,0.0178387,887.975,0.00222984,110.997,NaN
60807.7,24.9458,19.9997,0.0173505,923.488,0.00216881,115.436,NaN
62617.8,24.9529,19.9997,0.0168786,954.47,0.00210983,119.309,NaN
64477.4,24.9966,19.9998,0.0163896,985.401,0.00204871,123.175,NaN
66327.2,24.9415,19.9998,0.0159161,1015.28,0.00198952,126.91,NaN
68270.3,24.9409,19.9999,0.0154424,1045.74,0.00193029,130.718,NaN
70099.6,24.9229,20,0.0150236,1073.6,0.00187795,134.2,NaN
72012,24.9302,19.9998,0.0146166,1101.94,0.00182708,137.742,NaN
74033.7,24.8735,19.9996,0.0142156,1131.08,0.00177695,141.385,NaN
76091.7,24.8762,19.9999,0.0138369,1159.94,0.00172961,144.993,NaN
77814,24.8543,20.0002,0.0135318,1183.51,0.00169148,147.938,NaN
79760.4,24.8148,19.9995,0.0131991,1209.52,0.00164989,151.19,NaN
81867.1,24.8694,20,0.0128479,1236.96,0.00160599,154.62,NaN
83675.5,24.8463,19.9996,0.0125568,1259.92,0.00156961,157.491,NaN
85727,24.8111,20,0.012241,1285.36,0.00153012,160.67,NaN
87496.6,24.8177,20.0001,0.0119807,1306.79,0.00149759,163.348,NaN
89390.3,24.8803,19.9997,0.011715,1329.22,0.00146438,166.153,NaN
91165.1,24.8442,19.9996,0.0114755,1349.8,0.00143444,168.725,NaN
93158.5,24.8985,20.0003,0.0112155,1372.41,0.00140194,171.552,NaN
95137.6,24.8969,20.0004,0.0109623,1394.36,0.00137028,174.295,NaN
96880.6,24.8924,19.9994,0.0107397,1413.27,0.00134246,176.659,NaN
98857.5,24.8586,19.9994,0.0104868,1434.25,0.00131085,179.282,NaN
101065,24.8633,19.9999,0.0102002,1457.09,0.00127502,182.136,NaN
103211,24.8502,19.9995,0.0099186,1478.68,0.00123982,184.835,NaN
105170,24.8121,19.9998,0.00965532,1497.85,0.00120692,187.232,NaN
107123,24.8496,20.0002,0.00938578,1516.44,0.00117322,189.555,NaN
108990,24.8346,20,0.00912771,1533.73,0.00114096,191.716,NaN
111007,24.8272,19.9999,0.00884013,1551.85,0.00110502,193.981,NaN
112987,24.8072,19.9999,0.00855114,1569.07,0.00106889,196.134,NaN
114600,24.8075,19.9994,0.00831511,1582.68,0.00103939,197.834,NaN
116465,24.7554,19.9998,0.00804434,1597.93,0.00100554,199.741,NaN
118288,24.8452,19.9998,0.00778846,1612.36,0.000973557,201.545,NaN
120261,24.7771,19.9996,0.00753148,1627.46,0.000941435,203.433,NaN
122423,24.8323,19.9998,0.00727767,1643.47,0.000909708,205.433,NaN
124329,24.7699,19.9998,0.00707716,1657.14,0.000884646,207.143,NaN
126104,24.7792,19.9997,0.00691017,1669.55,0.000863771,208.694,NaN
128135,24.7782,19.9998,0.0067342,1683.41,0.000841775,210.426,NaN
129964,24.8171,20.0001,0.00658654,1695.59,0.000823318,211.949,NaN
131960,24.748,19.9999,0.00643617,1708.58,0.000804522,213.573,NaN
134172,24.7498,20,0.00628009,1722.64,0.000785011,215.331,NaN
135925,24.7886,19.9996,0.00616271,1733.55,0.000770339,216.694,NaN
138071,24.7815,19.9999,0.00602271,1746.63,0.000752839,218.328,NaN
140050,24.7713,19.9996,0.00590098,1758.42,0.000737622,219.803,NaN
142106,24.7878,19.9997,0.00578048,1770.43,0.00072256,221.304,NaN
144514,24.7592,20.0001,0.0056438,1784.19,0.000705475,223.023,NaN
146768,24.7842,20.0001,0.00552592,1796.77,0.000690739,224.597,NaN
148872,24.762,19.9997,0.00542024,1808.29,0.00067753,226.036,NaN
151213,24.7204,19.9996,0.00530334,1820.84,0.000662917,227.604,NaN
153355,24.7216,19.9999,0.00520352,1832.09,0.00065044,229.011,NaN
155495,24.6894,19.9999,0.00511214,1843.12,0.000639017,230.39,NaN
157752,24.6612,19.9996,0.00502083,1854.56,0.000627604,231.82,NaN
159855,24.6311,20.0004,0.00493929,1865.03,0.000617411,233.129,NaN
162069,24.662,19.9996,0.00485804,1875.88,0.000607255,234.484,NaN
164260,24.6405,19.9997,0.00478132,1886.44,0.000597665,235.805,NaN
166412,24.6152,19.9996,0.00470838,1896.65,0.000588548,237.081,NaN
168615,24.6187,19.9995,0.00463757,1906.94,0.000579696,238.367,NaN
171028,24.6437,19.9993,0.00456466,1918.04,0.000570583,239.755,NaN
173400,24.6175,19.9998,0.0044992,1928.79,0.0005624,241.099,NaN
175524,24.6148,19.9997,0.00444432,1938.29,0.00055554,242.286,NaN
177330,24.5827,20.0008,0.00440273,1946.27,0.000550341,243.284,NaN
179624,24.5826,20.0004,0.00435513,1956.32,0.000544391,244.54,NaN
182006,24.62,19.9996,0.00430548,1966.64,0.000538185,245.829,NaN
183885,24.5571,19.9999,0.00426656,1974.69,0.00053332,246.836,NaN
186143,24.6143,19.9994,0.004222,1984.27,0.00052775,248.033,NaN
188171,24.6177,19.9999,0.00418322,1992.79,0.000522903,249.099,NaN
190170,24.5627,19.9997,0.00414447,2001.12,0.000518059,250.14,NaN
192635,24.6055,19.9999,0.00409694,2011.28,0.000512117,251.409,NaN
194604,24.6013,19.9998,0.00405845,2019.3,0.000507306,252.413,NaN
196646,24.6315,19.9998,0.00401735,2027.55,0.000502169,253.444,NaN
198986,24.6063,19.9996,0.0039743,2036.9,0.000496788,254.612,NaN
201099,24.5748,19.9999,0.00393765,2045.26,0.000492206,255.657,NaN
203460,24.5791,20.0001,0.00389873,2054.51,0.000487342,256.813,NaN
205708,24.5712,19.9996,0.00386439,2063.23,0.000483049,257.904,NaN
207829,24.5458,19.9995,0.003832,2071.4,0.000479,258.924,NaN
209869,24.5231,20.0002,0.00380132,2079.18,0.000475166,259.897,NaN
211853,24.5407,19.9999,0.00377338,2086.69,0.000471673,260.837,NaN
214163,24.5452,19.9995,0.00373921,2095.37,0.000467401,261.921,NaN
216329,24.5317,20.0001,0.00370716,2103.44,0.000463395,262.929,NaN
218873,24.5095,19.9999,0.00366877,2112.82,0.000458596,264.102,NaN
220983,24.5195,19.9994,0.00363824,2120.52,0.00045478,265.066,NaN
223256,24.4911,19.9995,0.00360586,2128.76,0.000450732,266.095,NaN
225848,24.4927,20,0.00356771,2138.06,0.000445964,267.257,NaN
228033,24.4432,19.9995,0.00353795,2145.82,0.000442244,268.227,NaN
230349,24.4775,19.9999,0.00350657,2153.98,0.000438321,269.247,NaN
232172,24.4698,19.9997,0.00348242,2160.35,0.000435302,270.043,NaN
234619,24.4908,19.9999,0.00345045,2168.83,0.000431306,271.103,NaN
237030,24.4719,19.9998,0.00341819,2177.11,0.000427274,272.138,NaN
239087,24.4801,19.9991,0.00339169,2184.11,0.000423962,273.014,NaN
241421,24.4391,19.9997,0.00336073,2191.99,0.000420092,273.999,NaN
243809,24.4519,19.9997,0.00332968,2199.98,0.00041621,274.997,NaN
246277,24.4132,19.9998,0.00329639,2208.16,0.000412049,276.02,NaN
248554,24.4184,19.9997,0.00326674,2215.63,0.000408343,276.954,NaN
250635,24.3948,19.9999,0.0032394,2222.4,0.000404925,277.8,NaN
252906,24.4407,19.9999,0.0032098,2229.72,0.000401225,278.715,NaN
255120,24.4954,19.9997,0.00318213,2236.8,0.000397767,279.6,NaN
257413,24.4634,19.9997,0.00315154,2244.06,0.000393943,280.507,NaN
259041,24.4662,20,0.00313013,2249.17,0.000391266,281.146,NaN
259304,24.4749,19.9999,NaN,NaN,NaN,NaN,NaN
259899,24.4602,19.9996,NaN,NaN,NaN,NaN,NaN
260470,24.4148,19.9997,NaN,NaN,NaN,NaN,NaN
260826,24.4915,19.9997,NaN,NaN,NaN,NaN,NaN

File: myexp2.csv
Time,Temperature [AmbientT(Therm3T)],Temperature [Temperature],Heat flow [Signal],Heat [Signal],Normalized heat flow [Signal],Normalized heat [Signal],Time markers
0.0,24.4036,20,NaN,NaN,NaN,NaN,Reaction start
35.6429,24.4754,19.9999,0.000428303,0.00202309,0.000107076,0.000505774,NaN
177.643,24.5084,20.0007,0.0461761,3.413,0.011544,0.853249,NaN
383.364,24.4695,20.0001,0.0608372,15.0559,0.0152093,3.76396,NaN
673.643,24.5547,20.0001,0.0539592,32.1992,0.0134898,8.0498,NaN
1075.39,24.5051,20,0.0308451,49.0629,0.00771127,12.2657,NaN
1464.64,24.5322,20,0.0170778,58.1066,0.00426945,14.5266,NaN
2023.79,24.5262,19.9996,0.00813853,64.7566,0.00203463,16.1891,NaN
2788.08,24.5638,19.9997,0.00399031,69.0793,0.000997578,17.2698,NaN
3727.58,24.5599,19.9999,0.00243803,71.961,0.000609508,17.9903,NaN
4794.64,24.5574,20.0001,0.00181671,74.1816,0.000454177,18.5454,NaN
6001.69,24.5928,19.9998,0.00152074,76.1708,0.000380186,19.0427,NaN
7401.14,24.5903,20.0002,0.00139534,78.192,0.000348835,19.548,NaN
8579.75,24.5636,19.9998,0.00137274,79.82,0.000343184,19.955,NaN
9641.02,24.5924,19.9998,0.00155928,81.3536,0.00038982,20.3384,NaN
10786.9,24.6068,19.9999,0.00182054,83.2949,0.000455136,20.8237,NaN
11871.2,24.6286,19.9996,0.00204189,85.389,0.000510472,21.3472,NaN
13009.9,24.6165,19.9998,0.00228639,87.8513,0.000571598,21.9628,NaN
14194.5,24.6245,20.0001,0.00256251,90.721,0.000640626,22.6803,NaN
15255.7,24.6512,19.9999,0.00282957,93.5805,0.000707393,23.3951,NaN
16274.6,24.6573,19.9995,0.00310351,96.6019,0.000775877,24.1505,NaN
17574.9,24.6596,19.9994,0.00347421,100.876,0.000868552,25.219,NaN
18658.9,24.619,19.9998,0.00379971,104.818,0.000949927,26.2044,NaN
19884.5,24.6122,20.0006,0.00418425,109.709,0.00104606,27.4272,NaN
20955.4,24.6661,20.0003,0.00453219,114.375,0.00113305,28.5938,NaN
22204.4,24.6803,19.9992,0.00494952,120.295,0.00123738,30.0739,NaN
23463.8,24.7003,19.9999,0.00537772,126.798,0.00134443,31.6995,NaN
24752.1,24.6173,19.9999,0.00581497,134.009,0.00145374,33.5023,NaN
25957.7,24.6566,19.9999,0.00621594,141.262,0.00155398,35.3155,NaN
27152.9,24.7527,19.9998,0.00660123,148.923,0.00165031,37.2308,NaN
28311.6,24.7493,19.9998,0.0069568,156.78,0.0017392,39.195,NaN
29637.8,24.7352,19.9999,0.0073354,166.261,0.00183385,41.5651,NaN
30771,24.6609,19.9998,0.00763029,174.743,0.00190757,43.6858,NaN
32060.9,24.6062,19.9992,0.00792518,184.781,0.0019813,46.1952,NaN
33353.5,24.5598,19.9999,0.00817818,195.193,0.00204454,48.7983,NaN
34454.6,24.5276,19.9999,0.00835859,204.3,0.00208965,51.075,NaN
35525.3,24.5273,20,0.00850537,213.331,0.00212634,53.3327,NaN
36802.4,24.5002,19.9994,0.00864506,224.286,0.00216127,56.0715,NaN
37946.8,24.474,19.9998,0.00873772,234.235,0.00218443,58.5588,NaN
39249.8,24.4873,20,0.00880841,245.671,0.0022021,61.4176,NaN
40599.2,24.447,19.9998,0.00884289,257.584,0.00221072,64.396,NaN
41917.3,24.4496,19.9997,0.00884365,269.244,0.00221091,67.311,NaN
43114.1,24.3691,19.9994,0.00882006,279.815,0.00220501,69.9539,NaN
44442.4,24.3773,20,0.00877139,291.501,0.00219285,72.8752,NaN
45662.8,24.3881,19.9997,0.0087105,302.17,0.00217763,75.5424,NaN
46947,24.355,19.9997,0.00863679,313.31,0.0021592,78.3274,NaN
47999.8,24.3398,19.9996,0.00857911,322.371,0.00214478,80.5926,NaN
49059.1,24.3008,20,0.00854961,331.439,0.0021374,82.8596,NaN
50164.3,24.3339,19.9999,0.00860312,340.908,0.00215078,85.2271,NaN
51297.8,24.3149,20,0.00868334,350.709,0.00217083,87.6774,NaN
52369.4,24.2966,20,0.00871253,360.034,0.00217813,90.0085,NaN
53421,24.2608,19.9998,0.00870842,369.196,0.0021771,92.2991,NaN
54735.8,24.2884,19.9996,0.0086607,380.62,0.00216518,95.155,NaN
55890.2,24.2387,19.9996,0.0085851,390.577,0.00214627,97.6443,NaN
57148.7,24.2889,20,0.00847599,401.316,0.002119,100.329,NaN
58386.3,24.2437,19.9994,0.00834671,411.727,0.00208668,102.932,NaN
59495,24.2393,19.9998,0.00821809,420.911,0.00205452,105.228,NaN
60779.4,24.2417,19.9997,0.00805969,431.365,0.00201492,107.841,NaN
61905.4,24.2496,20.0001,0.00791459,440.359,0.00197865,110.09,NaN
63105.3,24.2619,19.9998,0.0077576,449.762,0.0019394,112.441,NaN
64228.5,24.2572,19.9999,0.00761146,458.392,0.00190286,114.598,NaN
65367.5,24.238,20.0003,0.0074638,466.978,0.00186595,116.745,NaN
66611.8,24.2625,20.0001,0.00730596,476.167,0.00182649,119.042,NaN
67691.1,24.1902,19.9997,0.00717244,483.98,0.00179311,120.995,NaN
68800.2,24.208,19.9997,0.00703892,491.86,0.00175973,122.965,NaN
70085.1,24.175,19.9997,0.00688972,500.808,0.00172243,125.202,NaN
71315.6,24.1695,19.9997,0.00675196,509.201,0.00168799,127.3,NaN
72549,24.127,19.9997,0.00661921,517.446,0.0016548,129.361,NaN
73716.8,24.1573,20.0001,0.00649887,525.105,0.00162472,131.276,NaN
74833.6,24.1435,19.9998,0.00638703,532.299,0.00159676,133.075,NaN
76105.2,24.1139,19.9995,0.00626359,540.343,0.0015659,135.086,NaN
77342.7,24.1098,20.0001,0.00614726,548.021,0.00153681,137.005,NaN
78723.1,24.0941,19.999,0.00602138,556.42,0.00150535,139.105,NaN
80195.6,24.1036,19.9994,0.00588997,565.189,0.00147249,141.297,NaN
81321.4,24.1251,19.9999,0.00579145,571.765,0.00144786,142.941,NaN
82591.7,24.1008,19.9996,0.00568296,579.053,0.00142074,144.763,NaN
83752.1,24.1527,19.9998,0.00558583,585.591,0.00139646,146.398,NaN
84928.5,24.1627,19.9997,0.00548998,592.106,0.0013725,148.026,NaN
85988.1,24.1091,19.9997,0.0054054,597.878,0.00135135,149.469,NaN
87211.9,24.1455,20.0001,0.00531067,604.435,0.00132767,151.109,NaN
88341.9,24.141,19.9997,0.00522596,610.387,0.00130649,152.597,NaN
89478.1,24.1653,19.9998,0.0051429,616.278,0.00128572,154.069,NaN
90798.4,24.1831,19.9998,0.00505004,623.006,0.00126251,155.751,NaN
91885.7,24.1399,19.9996,0.00497587,628.456,0.00124397,157.114,NaN
92962.9,24.1807,20.0001,0.00490401,633.777,0.001226,158.444,NaN
94086.6,24.2237,19.9997,0.00483171,639.247,0.00120793,159.812,NaN
95475.3,24.1793,19.9998,0.0047448,645.896,0.0011862,161.474,NaN
96618.7,24.163,19.9998,0.00467589,651.281,0.00116897,162.82,NaN
97898.7,24.1875,19.9997,0.00460156,657.219,0.00115039,164.305,NaN
99257.7,24.1944,20.0001,0.00452568,663.421,0.00113142,165.855,NaN
100492,24.1842,19.9994,0.00445918,668.964,0.00111479,167.241,NaN
101777,24.2077,19.9995,0.00439357,674.653,0.00109839,168.663,NaN
103220,24.1745,20,0.00432233,680.942,0.00108058,170.235,NaN
104628,24.1915,20.0002,0.00425452,686.981,0.00106363,171.745,NaN
105918,24.3246,20,0.00419427,692.43,0.00104857,173.107,NaN
107139,24.2962,19.9999,0.00414034,697.515,0.00103508,174.379,NaN
108391,24.2622,20,0.00408405,702.664,0.00102101,175.666,NaN
109820,24.2928,20,0.00401969,708.457,0.00100492,177.114,NaN
111325,24.2574,20.0001,0.00395087,714.452,0.000987718,178.613,NaN
112895,24.2414,20.0001,0.00387944,720.6,0.00096986,180.15,NaN
114204,24.2487,19.9994,0.00382085,725.64,0.000955213,181.41,NaN
115658,24.251,19.9998,0.00375441,731.146,0.000938602,182.787,NaN
116953,24.2217,20.0001,0.00369377,735.97,0.000923443,183.993,NaN
118392,24.2108,19.9998,0.0036246,741.236,0.000906151,185.309,NaN
119685,24.2082,19.9998,0.00356289,745.882,0.000890721,186.47,NaN
121198,24.1511,19.9997,0.00348999,751.219,0.000872497,187.805,NaN
122405,24.1676,19.9995,0.00343131,755.393,0.000857827,188.848,NaN
123993,24.1534,19.9998,0.0033547,760.782,0.000838674,190.196,NaN
125279,24.1342,19.9999,0.00329263,765.058,0.000823158,191.264,NaN
126725,24.1235,20.0001,0.00322441,769.769,0.000806102,192.442,NaN
127952,24.128,19.9983,0.00316744,773.69,0.00079186,193.422,NaN
[...]
137384,24.0801,19.9998,0.00280445,801.746,0.000701112,200.437,NaN
138744,24.0701,20,0.00276293,805.533,0.000690732,201.383,NaN
140309,24.076,19.9995,0.0027175,809.821,0.000679376,202.455,NaN
141571,24.0494,19.9998,0.00268179,813.227,0.000670447,203.307,NaN
142771,24.0298,19.9999,0.0026489,816.424,0.000662225,204.106,NaN
144209,24.0528,19.9996,0.00261108,820.208,0.000652771,205.052,NaN
145529,24.0432,20.0004,0.00257703,823.63,0.000644259,205.908,NaN
146686,24.0311,19.9998,0.0025473,826.594,0.000636824,206.649,NaN
147779,24.0193,20.0003,0.00251941,829.363,0.000629853,207.341,NaN
149071,24.0093,19.9997,0.00248826,832.598,0.000622066,208.15,NaN
150465,24.0036,19.9997,0.00245574,836.045,0.000613936,209.011,NaN
151970,23.9919,19.9997,0.00242135,839.713,0.000605337,209.928,NaN
153213,23.9774,20.0002,0.00239342,842.705,0.000598355,210.676,NaN
154673,23.9782,19.9999,0.00236251,846.177,0.000590628,211.544,NaN
156159,23.9696,19.9997,0.00233089,849.665,0.000582723,212.416,NaN
157519,23.9456,19.9999,0.00230297,852.817,0.000575743,213.204,NaN
158858,23.9622,19.9999,0.00227413,855.88,0.000568532,213.97,NaN
160239,23.9042,19.9995,0.00224911,859.002,0.000562277,214.751,NaN
161557,23.8967,20.0003,0.00222471,861.95,0.000556177,215.488,NaN
162766,23.9279,19.9999,0.00220274,864.627,0.000550686,216.157,NaN
164021,23.8598,19.9999,0.0021812,867.379,0.000545301,216.845,NaN
165329,23.8749,19.9995,0.00215819,870.215,0.000539548,217.554,NaN
166644,23.8549,19.9999,0.00213647,873.04,0.000534117,218.26,NaN
168065,23.8344,19.9995,0.00211363,876.059,0.000528408,219.015,NaN
169301,23.8234,19.9997,0.0020945,878.661,0.000523626,219.665,NaN
170524,23.8302,19.9995,0.00207768,881.213,0.000519421,220.303,NaN
171824,23.8639,19.9998,0.00206041,883.902,0.000515102,220.975,NaN
172710,23.8549,19.9998,0.00204987,885.722,0.000512468,221.43,NaN
172984,23.8827,19.9996,NaN,NaN,NaN,NaN,NaN
173318,23.8953,19.9998,NaN,NaN,NaN,NaN,NaN
173614,23.9023,19.9991,NaN,NaN,NaN,NaN,NaN
173888,23.895,20.0003,NaN,NaN,NaN,NaN,NaN
174136,23.9155,19.9993,NaN,NaN,NaN,NaN,NaN
174485,23.8943,19.9999,NaN,NaN,NaN,NaN,NaN
174847,23.9385,20,NaN,NaN,NaN,NaN,NaN
175219,23.9312,19.9997,NaN,NaN,NaN,NaN,NaN
175693,23.9084,19.9996,NaN,NaN,NaN,NaN,NaN
176047,23.9363,19.9999,NaN,NaN,NaN,NaN,NaN
176495,23.9388,19.9999,NaN,NaN,NaN,NaN,NaN
176783,23.9161,19.9996,NaN,NaN,NaN,NaN,NaN
177114,23.9299,19.9996,NaN,NaN,NaN,NaN,NaN
177372,23.9219,19.9997,NaN,NaN,NaN,NaN,NaN
177686,23.9259,19.9997,NaN,NaN,NaN,NaN,NaN
178132,23.9245,20.0004,NaN,NaN,NaN,NaN,NaN
178349,23.9836,19.9999,NaN,NaN,NaN,NaN,NaN
178683,23.9506,19.9998,NaN,NaN,NaN,NaN,NaN
178985,23.9355,19.9999,NaN,NaN,NaN,NaN,NaN
179323,23.94,20,NaN,NaN,NaN,NaN,NaN
179717,23.9511,19.9999,NaN,NaN,NaN,NaN,NaN
180120,23.9709,20.0001,NaN,NaN,NaN,NaN,NaN
180432,23.9681,20.0001,NaN,NaN,NaN,NaN,NaN
180742,23.9496,19.9995,NaN,NaN,NaN,NaN,NaN
181035,23.9858,20.0002,NaN,NaN,NaN,NaN,NaN
181292,23.9886,19.9997,NaN,NaN,NaN,NaN,NaN
181480,23.9914,20.0001,NaN,NaN,NaN,NaN,NaN
181870,23.9727,19.9995,NaN,NaN,NaN,NaN,NaN
182146,23.9387,20,NaN,NaN,NaN,NaN,NaN
182472,23.9659,19.9999,NaN,NaN,NaN,NaN,NaN
182850,23.9766,19.9995,NaN,NaN,NaN,NaN,NaN
183158,24.0059,19.9998,NaN,NaN,NaN,NaN,NaN
183491,23.9865,19.9999,NaN,NaN,NaN,NaN,NaN
183921,24.0344,20.0004,NaN,NaN,NaN,NaN,NaN
184202,24.0351,20,NaN,NaN,NaN,NaN,NaN
184462,23.9956,19.9997,NaN,NaN,NaN,NaN,NaN
184702,23.9979,19.9998,NaN,NaN,NaN,NaN,NaN
184969,23.9806,19.9996,NaN,NaN,NaN,NaN,NaN
185219,24.0233,19.9996,NaN,NaN,NaN,NaN,NaN
185537,24.0751,19.9997,NaN,NaN,NaN,NaN,NaN
185803,24.155,19.9995,NaN,NaN,NaN,NaN,NaN
186131,24.1508,19.9999,NaN,NaN,NaN,NaN,NaN
186527,24.1857,20.0002,NaN,NaN,NaN,NaN,NaN