Folder: CaloCem/TAInstCalorimetry/DATA (part 3)

File: myexp5.csv
Time,Temperature [AmbientT(Therm3T)],Temperature [Temperature],Heat flow [Signal],Heat [Signal],Normalized heat flow [Signal],Normalized heat [Signal],Time markers
0.0,24.518,20,NaN,NaN,NaN,NaN,Reaction start
31.5838,24.5261,20.0003,0.00116167,0.00346218,0.000290417,0.000865546,NaN
132.584,24.5431,20.0003,0.0773066,4.29338,0.0193266,1.07335,NaN
315.084,24.5917,20.0003,0.0820737,19.9675,0.0205184,4.99187,NaN
680.084,24.5348,20.0001,0.0522996,44.1629,0.0130749,11.0407,NaN
1040.8,24.5325,20,0.0242657,57.483,0.00606642,14.3707,NaN
1520.9,24.5271,19.9999,0.0101593,65.0581,0.00253982,16.2645,NaN
2288.41,24.5549,19.9998,0.00461814,70.1892,0.00115454,17.5473,NaN
3290.29,24.5531,19.9997,0.00285345,73.7596,0.000713362,18.4399,NaN
4365.58,24.6148,19.9996,0.00214128,76.3955,0.00053532,19.0989,NaN
5535.19,24.5686,20.0002,0.00176812,78.6568,0.000442031,19.6642,NaN
6704.78,24.5908,19.9994,0.00158726,80.6046,0.000396815,20.1512,NaN
7882.24,24.5834,19.9998,0.00151775,82.4254,0.000379437,20.6063,NaN
9130.8,24.618,19.9997,0.00158248,84.3245,0.000395621,21.0811,NaN
10249.3,24.6146,20,0.00181532,86.2256,0.000453831,21.5564,NaN
11469.6,24.6452,19.9988,0.00205403,88.5862,0.000513508,22.1465,NaN
12675.3,24.5967,19.9999,0.00230152,91.2101,0.000575381,22.8025,NaN
13846.7,24.6039,19.9996,0.00256233,94.0569,0.000640583,23.5142,NaN
15007.5,24.6258,20,0.0028431,97.1919,0.000710776,24.298,NaN
16019.5,24.6232,19.9993,0.00310431,100.2,0.000776078,25.05,NaN
17283.7,24.6424,19.9995,0.00345018,104.341,0.000862545,26.0853,NaN
18359.3,24.6565,20,0.00375961,108.217,0.000939902,27.0543,NaN
19541.1,24.654,20,0.00411378,112.868,0.00102844,28.217,NaN
20700.6,24.6778,20,0.00447432,117.846,0.00111858,29.4615,NaN
21944.1,24.6626,19.9997,0.00487156,123.656,0.00121789,30.914,NaN
23058.9,24.6954,19.9996,0.00523322,129.288,0.0013083,32.322,NaN
24231.6,24.699,20,0.00561596,135.65,0.00140399,33.9124,NaN
25559.8,24.7068,19.9997,0.00604592,143.396,0.00151148,35.8489,NaN
26711.8,24.7173,20,0.00641114,150.571,0.00160278,37.6427,NaN
27925.4,24.7335,20.0003,0.00678204,158.579,0.00169551,39.6447,NaN
29180.2,24.722,20,0.00714589,167.319,0.00178647,41.8298,NaN
30303.7,24.6412,20.0003,0.00745051,175.52,0.00186263,43.8801,NaN
31396.1,24.5913,19.9998,0.00772474,183.811,0.00193119,45.9528,NaN
32548.4,24.5597,19.9999,0.00798579,192.866,0.00199645,48.2165,NaN
33796.4,24.5372,20.0001,0.00823661,202.993,0.00205915,50.7481,NaN
35076.7,24.4754,19.9998,0.00845617,213.682,0.00211404,53.4206,NaN
36360.9,24.4959,19.9989,0.00863774,224.662,0.00215944,56.1656,NaN
37715.8,24.4668,19.9995,0.00878858,236.473,0.00219715,59.1182,NaN
38947.2,24.4631,19.9998,0.00889126,247.361,0.00222282,61.8402,NaN
40169.5,24.4154,19.9998,0.00896049,258.275,0.00224012,64.5686,NaN
41365.6,24.448,19.9997,0.00900121,269.02,0.0022503,67.2549,NaN
42567.7,24.4232,19.9997,0.00901652,279.852,0.00225413,69.9629,NaN
43750,24.38,19.9997,0.00901042,290.511,0.00225261,72.6276,NaN
44898.7,24.3261,19.9999,0.00898736,300.848,0.00224684,75.2121,NaN
46126.1,24.3594,19.9999,0.00895207,311.858,0.00223802,77.9645,NaN
47247,24.3489,20.0003,0.00892286,321.875,0.00223072,80.4688,NaN
48360.4,24.2759,19.9996,0.00892133,331.805,0.00223033,82.9513,NaN
49339.6,24.3009,19.9999,0.00896029,340.557,0.00224007,85.1393,NaN
50615,24.311,19.9998,0.00901409,352.024,0.00225352,88.0059,NaN
51862.4,24.3305,19.9995,0.00902831,363.28,0.00225708,90.82,NaN
53045.8,24.2684,19.9998,0.00902259,373.962,0.00225565,93.4905,NaN
54246.3,24.2831,20.0001,0.00899214,384.779,0.00224803,96.1947,NaN
55351.2,24.273,19.9997,0.00893942,394.687,0.00223485,98.6717,NaN
56620.3,24.2323,19.9999,0.00885264,405.98,0.00221316,101.495,NaN
57917.2,24.2927,19.9996,0.00873812,417.389,0.00218453,104.347,NaN
59175,24.2387,19.9997,0.00860763,428.3,0.00215191,107.075,NaN
60517.2,24.238,20.0001,0.00845576,439.752,0.00211394,109.938,NaN
61660.3,24.2379,20,0.00831581,449.339,0.00207895,112.335,NaN
62874.1,24.2467,19.9998,0.0081643,459.341,0.00204108,114.835,NaN
64048.2,24.2153,20.0001,0.00801783,468.841,0.00200446,117.21,NaN
65197.4,24.2351,19.9999,0.00787148,477.97,0.00196787,119.493,NaN
66402.1,24.1654,20.0004,0.00772127,487.362,0.00193032,121.841,NaN
67546.7,24.1864,19.9994,0.00758267,496.121,0.00189567,124.03,NaN
68747.6,24.1828,19.9997,0.00744185,505.142,0.00186046,126.285,NaN
70028.3,24.1796,19.9999,0.00729651,514.579,0.00182413,128.645,NaN
71247.6,24.1815,19.9992,0.00716383,523.395,0.00179096,130.849,NaN
72310.1,24.1998,19.9997,0.00705292,530.946,0.00176323,132.737,NaN
73570.6,24.1421,19.9996,0.00692608,539.756,0.00173152,134.939,NaN
74763.3,24.1669,20.0002,0.00681026,547.947,0.00170256,136.987,NaN
76014.1,24.1437,19.9996,0.00669337,556.391,0.00167334,139.098,NaN
77049.6,24.131,19.9993,0.00659916,563.273,0.00164979,140.818,NaN
78248.7,24.1259,19.9996,0.00649154,571.122,0.00162289,142.781,NaN
79443.3,24.1182,19.9996,0.00638771,578.815,0.00159693,144.704,NaN
80688.6,24.1279,19.9998,0.00628053,586.703,0.00157013,146.676,NaN
81787.9,24.128,20.0001,0.00618836,593.556,0.00154709,148.389,NaN
83050.6,24.0755,20.0002,0.00608393,601.304,0.00152098,150.326,NaN
84444.6,24.1225,20.0003,0.00597158,609.706,0.0014929,152.427,NaN
85713,24.1536,20.0001,0.00587095,617.216,0.00146774,154.304,NaN
86766.1,24.1362,20,0.00578986,623.356,0.00144746,155.839,NaN
87807.9,24.1486,20.0001,0.00571109,629.346,0.00142777,157.337,NaN
88908.8,24.1583,20,0.0056297,635.589,0.00140743,158.897,NaN
90100.5,24.1683,19.9993,0.00554404,642.246,0.00138601,160.562,NaN
91166.2,24.1951,20,0.00546948,648.115,0.00136737,162.029,NaN
92234.8,24.1726,19.9997,0.00539636,653.92,0.00134909,163.48,NaN
93448.2,24.1684,19.9999,0.0053159,660.419,0.00132898,165.105,NaN
94807.2,24.1858,20,0.00522779,667.583,0.00130695,166.896,NaN
95950.9,24.1962,19.9997,0.00515548,673.521,0.00128887,168.38,NaN
97196.8,24.1616,19.9998,0.0050793,679.896,0.00126983,169.974,NaN
98534.7,24.19,19.9996,0.00499996,686.638,0.00124999,171.659,NaN
99815.2,24.1801,19.9997,0.0049248,692.992,0.0012312,173.248,NaN
101131,24.1779,19.9996,0.00485025,699.422,0.00121256,174.856,NaN
102695,24.1511,19.9996,0.00476398,706.939,0.00119099,176.735,NaN
104132,24.2188,20.0002,0.0046859,713.729,0.00117147,178.432,NaN
105359,24.3258,19.9999,0.00461914,719.44,0.00115478,179.86,NaN
106581,24.267,19.9999,0.00455256,725.042,0.00113814,181.26,NaN
107852,24.2716,20.0001,0.00448296,730.786,0.00112074,182.696,NaN
109155,24.2514,19.9999,0.00440783,736.578,0.00110196,184.145,NaN
110478,24.247,19.9998,0.00433122,742.356,0.0010828,185.589,NaN
111924,24.2483,19.9998,0.00424634,748.561,0.00106159,187.14,NaN
113147,24.2599,19.9996,0.00417336,753.71,0.00104334,188.428,NaN
114449,24.2882,19.9997,0.00409542,759.092,0.00102385,189.773,NaN
115718,24.2403,20.0003,0.00401817,764.24,0.00100454,191.06,NaN
116893,24.211,19.9997,0.00394573,768.919,0.000986433,192.23,NaN
118230,24.2049,20.0001,0.00386105,774.137,0.000965262,193.534,NaN
119680,24.1966,19.9998,0.00376973,779.67,0.000942433,194.918,NaN
121310,24.166,20.0004,0.00366732,785.729,0.00091683,196.432,NaN
122427,24.1641,19.9998,0.00359899,789.787,0.000899749,197.447,NaN
123632,24.1441,19.9998,0.00352822,794.08,0.000882055,198.52,NaN
124960,24.1146,19.9998,0.00345338,798.718,0.000863345,199.68,NaN
126287,24.1461,19.9998,0.00338319,803.253,0.000845796,200.813,NaN
127688,24.1527,20.0003,0.00331397,807.945,0.000828493,201.986,NaN
[...]
137185,24.0706,20.0002,0.00293243,837.517,0.000733107,209.379,NaN
138510,24.0952,20.0002,0.00288725,841.372,0.000721813,210.343,NaN
139791,24.0581,19.9995,0.00284443,845.041,0.000711108,211.26,NaN
141017,24.0678,19.9998,0.00280397,848.503,0.000700994,212.126,NaN
142330,24.052,19.9998,0.00276244,852.159,0.000690609,213.04,NaN
143509,24.0417,19.9998,0.00272681,855.394,0.000681702,213.849,NaN
144719,24.0404,19.9993,0.00269159,858.673,0.000672898,214.668,NaN
146110,24.0419,19.9996,0.00265261,862.388,0.000663152,215.597,NaN
147306,24.0235,19.9997,0.00261984,865.541,0.00065496,216.385,NaN
148748,24.0112,19.9998,0.00258244,869.293,0.000645611,217.323,NaN
150187,23.9937,19.9998,0.00254718,872.984,0.000636795,218.246,NaN
151489,23.9671,19.9998,0.00251618,876.28,0.000629046,219.07,NaN
152723,23.9995,19.9995,0.00248716,879.366,0.000621789,219.842,NaN
154060,23.936,19.9994,0.00245754,882.673,0.000614384,220.668,NaN
155458,23.9593,19.9999,0.00242713,886.086,0.000606782,221.521,NaN
156794,23.9388,20,0.00240062,889.311,0.000600154,222.328,NaN
158235,23.9425,19.9995,0.00237198,892.749,0.000592994,223.187,NaN
159472,23.8783,19.9997,0.00234839,895.67,0.000587097,223.917,NaN
160643,23.9119,19.9995,0.00232789,898.407,0.000581973,224.602,NaN
161907,23.8965,19.9994,0.00230569,901.335,0.000576423,225.334,NaN
163254,23.8969,20.0008,0.00228299,904.425,0.000570746,226.106,NaN
164596,23.8937,19.9997,0.00226101,907.474,0.000565254,226.869,NaN
166071,23.8701,19.9999,0.00223815,910.794,0.000559537,227.698,NaN
167567,23.8546,19.9995,0.00221517,914.124,0.000553791,228.531,NaN
168606,23.831,19.9993,0.00220038,916.419,0.000550095,229.105,NaN
169822,23.8453,19.9993,0.00218287,919.084,0.000545719,229.771,NaN
171076,23.8512,19.9998,0.00216703,921.811,0.000541757,230.453,NaN
172433,23.8535,19.9998,0.00214949,924.74,0.000537372,231.185,NaN
172657,23.8731,20.0001,0.00214713,925.221,0.000536782,231.305,NaN
172915,23.8817,20,NaN,NaN,NaN,NaN,NaN
173254,23.8844,20.0001,NaN,NaN,NaN,NaN,NaN
173505,23.9157,20.0001,NaN,NaN,NaN,NaN,NaN
173841,23.9044,19.9996,NaN,NaN,NaN,NaN,NaN
174136,23.8824,19.9995,NaN,NaN,NaN,NaN,NaN
174439,23.9083,19.9995,NaN,NaN,NaN,NaN,NaN
174905,23.9143,19.9995,NaN,NaN,NaN,NaN,NaN
175294,23.8721,20.0001,NaN,NaN,NaN,NaN,NaN
175584,23.8758,19.9999,NaN,NaN,NaN,NaN,NaN
176069,23.9328,19.9999,NaN,NaN,NaN,NaN,NaN
176336,23.9241,19.9998,NaN,NaN,NaN,NaN,NaN
176808,23.9188,19.9998,NaN,NaN,NaN,NaN,NaN
177173,23.9244,20.0004,NaN,NaN,NaN,NaN,NaN
177524,23.944,20.0003,NaN,NaN,NaN,NaN,NaN
177856,23.9742,19.9998,NaN,NaN,NaN,NaN,NaN
178211,23.9558,19.9997,NaN,NaN,NaN,NaN,NaN
178557,23.959,19.9997,NaN,NaN,NaN,NaN,NaN
178813,23.972,19.9999,NaN,NaN,NaN,NaN,NaN
179157,23.9644,19.9999,NaN,NaN,NaN,NaN,NaN
179545,23.9666,20.0001,NaN,NaN,NaN,NaN,NaN
179866,23.929,20.0001,NaN,NaN,NaN,NaN,NaN
180181,23.9619,19.9995,NaN,NaN,NaN,NaN,NaN
180427,23.9488,19.9997,NaN,NaN,NaN,NaN,NaN
180720,23.9604,19.9999,NaN,NaN,NaN,NaN,NaN
180935,23.9702,19.9998,NaN,NaN,NaN,NaN,NaN
181268,23.9603,19.9995,NaN,NaN,NaN,NaN,NaN
181539,23.978,19.9997,NaN,NaN,NaN,NaN,NaN
181834,24.0021,19.9996,NaN,NaN,NaN,NaN,NaN
182136,24.0086,19.9998,NaN,NaN,NaN,NaN,NaN
182527,23.9976,19.9998,NaN,NaN,NaN,NaN,NaN
182859,24.0144,19.9998,NaN,NaN,NaN,NaN,NaN
183106,23.9821,19.9998,NaN,NaN,NaN,NaN,NaN
183553,24.0039,19.9998,NaN,NaN,NaN,NaN,NaN
183851,24.0328,20,NaN,NaN,NaN,NaN,NaN
184113,23.9864,19.9997,NaN,NaN,NaN,NaN,NaN
184483,23.9783,19.9995,NaN,NaN,NaN,NaN,NaN
184719,24.0064,19.9997,NaN,NaN,NaN,NaN,NaN
185063,24.0445,20.0006,NaN,NaN,NaN,NaN,NaN
185472,24.1426,19.9999,NaN,NaN,NaN,NaN,NaN
185727,24.1598,19.9997,NaN,NaN,NaN,NaN,NaN
185953,24.1632,19.9999,NaN,NaN,NaN,NaN,NaN

File: myexp6.csv
Time,Temperature [AmbientT(Therm3T)],Temperature [Temperature],Heat flow [Signal],Heat [Signal],Normalized heat flow [Signal],Normalized heat [Signal],Time markers
0.0,24.442,20,NaN,NaN,NaN,NaN,Reaction start
30.5052,24.4481,20.0001,0.00109081,0.00497222,0.000272702,0.00124305,NaN
127.505,24.479,20.0002,0.0819969,4.31601,0.0204992,1.079,NaN
267.005,24.5122,20.0002,0.0903111,17.097,0.0225778,4.27426,NaN
539.005,24.622,20.0003,0.064328,37.8133,0.016082,9.45332,NaN
841.005,24.5553,19.9999,0.0363262,53.1376,0.00908156,13.2844,NaN
1167.63,24.5318,19.9999,0.0175564,61.487,0.00438911,15.3717,NaN
1650.95,24.5326,19.9997,0.00801878,67.1927,0.00200469,16.7982,NaN
2397.23,24.5471,20,0.00419641,71.4228,0.0010491,17.8557,NaN
3399.85,24.5725,19.9998,0.00273822,74.7699,0.000684555,18.6925,NaN
4491.95,24.5163,20,0.002099,77.3682,0.000524751,19.3421,NaN
5755.24,24.562,19.9998,0.00175025,79.7713,0.000437561,19.9428,NaN
6940.11,24.6095,19.9996,0.00160679,81.7461,0.000401697,20.4365,NaN
8109.13,24.5923,20,0.00156881,83.5958,0.000392204,20.8989,NaN
9256.08,24.6222,19.9997,0.00174204,85.4629,0.00043551,21.3657,NaN
10423.4,24.622,19.9999,0.00199121,87.6487,0.000497801,21.9122,NaN
11574.1,24.6084,19.9995,0.00221203,90.066,0.000553007,22.5165,NaN
12670.5,24.6314,19.9999,0.00244244,92.6153,0.00061061,23.1538,NaN
13860.1,24.6317,19.9998,0.0027205,95.6837,0.000680124,23.9209,NaN
15102,24.6306,19.9999,0.00303965,99.2575,0.000759912,24.8144,NaN
16250.3,24.6287,19.9994,0.00335861,102.929,0.000839652,25.7324,NaN
17471.7,24.6435,19.9997,0.00371542,107.247,0.000928855,26.8118,NaN
18685,24.6584,19.9996,0.00408732,111.979,0.00102183,27.9949,NaN
19757.8,24.6442,20.0002,0.00442959,116.547,0.0011074,29.1367,NaN
20837,24.6675,19.9994,0.00478512,121.518,0.00119628,30.3794,NaN
22062,24.6754,19.9996,0.00519809,127.633,0.00129952,31.9082,NaN
23331.1,24.6958,19.9997,0.00563241,134.505,0.0014081,33.6262,NaN
24657.2,24.6942,19.9995,0.00608486,142.274,0.00152122,35.5686,NaN
25893.1,24.7285,19.9993,0.00650006,150.052,0.00162501,37.513,NaN
27086.9,24.7083,19.9998,0.00688846,158.045,0.00172212,39.5112,NaN
28272.2,24.7549,19.9998,0.00725776,166.431,0.00181444,41.6077,NaN
29596.8,24.7275,20.001,0.00764202,176.302,0.0019105,44.0755,NaN
30730.4,24.6449,19.9992,0.00794738,185.141,0.00198685,46.2852,NaN
31974.1,24.5833,19.9996,0.00824742,195.215,0.00206185,48.8038,NaN
33194.2,24.5465,20.0002,0.00850585,205.44,0.00212646,51.3599,NaN
34439.7,24.5389,19.9998,0.00872978,216.178,0.00218244,54.0445,NaN
35635.1,24.5206,19.9992,0.00890779,226.723,0.00222695,56.6808,NaN
36912.1,24.4933,19.9999,0.00905991,238.199,0.00226498,59.5498,NaN
38206.3,24.5102,19.9999,0.0091753,250.003,0.00229383,62.5006,NaN
39450.6,24.434,20.0001,0.00925161,261.471,0.0023129,65.3677,NaN
40674.2,24.4374,19.9994,0.00929447,272.82,0.00232362,68.205,NaN
41971.2,24.4007,19.9996,0.0093095,284.888,0.00232738,71.2219,NaN
43125.8,24.3936,19.9998,0.00929755,295.632,0.00232439,73.908,NaN
44357.5,24.3569,19.9997,0.00926377,307.064,0.00231594,76.7661,NaN
45656,24.336,19.9994,0.00921639,319.063,0.0023041,79.7658,NaN
46825.1,24.3316,20,0.00917127,329.811,0.00229282,82.4528,NaN
47955.9,24.3206,20,0.00914647,340.164,0.00228662,85.0411,NaN
49041.3,24.3301,19.9998,0.00917287,350.101,0.00229322,87.5253,NaN
50256,24.3234,19.9992,0.00923824,361.283,0.00230956,90.3208,NaN
51467.8,24.2951,19.9996,0.00927645,372.506,0.00231911,93.1264,NaN
52574.5,24.2916,20.0001,0.00927517,382.775,0.00231879,95.6936,NaN
53701.6,24.2911,19.9997,0.00924318,393.213,0.0023108,98.3032,NaN
54854.3,24.3046,19.9995,0.00918178,403.834,0.00229544,100.959,NaN
56110.1,24.2758,19.9994,0.00908929,415.309,0.00227232,103.827,NaN
57390.5,24.2556,19.9998,0.00897029,426.873,0.00224257,106.718,NaN
58667.3,24.2326,20,0.00883454,438.242,0.00220864,109.56,NaN
59933.8,24.1894,19.9996,0.00868325,449.335,0.00217081,112.334,NaN
61087.3,24.2294,19.9998,0.00854093,459.27,0.00213523,114.817,NaN
62185.1,24.2791,20.0001,0.00840189,468.571,0.00210047,117.143,NaN
63530.2,24.2389,19.9997,0.00822705,479.754,0.00205676,119.939,NaN
64712.7,24.2284,19.9998,0.00807709,489.395,0.00201927,122.349,NaN
65917.1,24.1876,19.9996,0.00792735,499.032,0.00198184,124.758,NaN
66962.9,24.2099,19.9994,0.00779698,507.255,0.00194924,126.814,NaN
67978.9,24.2292,19.9995,0.00767806,515.116,0.00191952,128.779,NaN
69217.7,24.1944,19.9997,0.00753849,524.542,0.00188462,131.135,NaN
70447.5,24.1779,19.9999,0.007399,533.727,0.00184975,133.432,NaN
71628.6,24.1507,19.9997,0.00727071,542.389,0.00181768,135.597,NaN
72909.3,24.1639,19.9997,0.00713813,551.615,0.00178453,137.904,NaN
74157.1,24.1201,20,0.00701413,560.445,0.00175353,140.111,NaN
75301.5,24.1521,20.0001,0.00690238,568.408,0.0017256,142.102,NaN
76518.3,24.1426,19.9996,0.00678788,576.738,0.00169697,144.184,NaN
77913.9,24.1169,19.9993,0.0066593,586.12,0.00166483,146.53,NaN
79105.8,24.1289,20.0002,0.00655046,593.992,0.00163762,148.498,NaN
80423.3,24.1066,19.9998,0.00643147,602.544,0.00160787,150.636,NaN
81416.1,24.1543,19.9995,0.0063436,608.885,0.0015859,152.221,NaN
82643.4,24.0976,19.9998,0.00623817,616.606,0.00155954,154.152,NaN
83931.9,24.1137,19.9995,0.00613143,624.574,0.00153286,156.143,NaN
85147.6,24.1296,19.9997,0.00603461,631.969,0.00150865,157.992,NaN
86315.9,24.1429,20,0.00594092,638.964,0.00148523,159.741,NaN
87471.7,24.1302,20,0.00585131,645.779,0.00146283,161.445,NaN
88772.3,24.1817,19.9999,0.00575322,653.325,0.00143831,163.331,NaN
89863.1,24.1423,19.9998,0.00567388,659.556,0.00141847,164.889,NaN
90985.9,24.1521,19.9998,0.00559366,665.882,0.00139842,166.47,NaN
92192.3,24.1809,19.9997,0.00550796,672.579,0.00137699,168.145,NaN
93291.4,24.1671,19.9999,0.0054317,678.591,0.00135792,169.648,NaN
94527.4,24.1717,19.9997,0.00534897,685.253,0.00133724,171.313,NaN
95830,24.2146,19.9994,0.00526568,692.166,0.00131642,173.041,NaN
96904.5,24.2279,20,0.00520036,697.789,0.00130009,174.447,NaN
98125,24.1985,20.0002,0.0051275,704.091,0.00128187,176.023,NaN
99367.2,24.1977,19.9995,0.0050526,710.413,0.00126315,177.603,NaN
100766,24.1703,19.9998,0.00497507,717.427,0.00124377,179.357,NaN
101926,24.177,19.9998,0.00491497,723.161,0.00122874,180.79,NaN
103310,24.1845,20.0007,0.00483698,729.911,0.00120925,182.478,NaN
104559,24.2224,19.9998,0.00476371,735.906,0.00119093,183.977,NaN
105728,24.3367,19.9999,0.00469437,741.435,0.00117359,185.359,NaN
107129,24.2494,20.0001,0.00461142,747.955,0.00115285,186.989,NaN
108508,24.2415,19.9997,0.00452371,754.251,0.00113093,188.563,NaN
109740,24.2672,19.9997,0.00444905,759.779,0.00111226,189.945,NaN
111208,24.2046,19.9999,0.00436134,766.247,0.00109034,191.562,NaN
112575,24.2696,20.0001,0.00427733,772.151,0.00106933,193.038,NaN
113886,24.2693,19.9995,0.00419801,777.706,0.0010495,194.427,NaN
115163,24.2557,19.9999,0.00412006,783.018,0.00103001,195.755,NaN
116512,24.2382,20.0001,0.00403233,788.518,0.00100808,197.13,NaN
117997,24.1923,19.9997,0.00393388,794.431,0.000983469,198.608,NaN
119208,24.195,19.9998,0.00385751,799.148,0.000964376,199.787,NaN
120557,24.1829,19.9995,0.00377468,804.297,0.000943671,201.074,NaN
121890,24.1494,19.9998,0.00369852,809.276,0.00092463,202.319,NaN
123224,24.164,19.9998,0.00362477,814.161,0.000906192,203.54,NaN
124602,24.1468,19.9996,0.00355222,819.107,0.000888055,204.777,NaN
125889,24.1214,19.9997,0.00349056,823.638,0.00087264,205.909,NaN
[...]
136559,24.0664,19.9995,0.00306421,858.451,0.000766053,214.613,NaN
138130,24.0573,19.9995,0.00301611,863.225,0.000754028,215.806,NaN
139427,24.0562,19.9997,0.00297857,867.114,0.000744642,216.779,NaN
140672,24.066,20,0.00294512,870.803,0.000736279,217.701,NaN
142072,24.0808,19.9999,0.00290491,874.896,0.000726226,218.724,NaN
143427,24.0549,19.9997,0.00286834,878.808,0.000717085,219.702,NaN
144671,24.0078,20.0004,0.00283811,882.355,0.000709527,220.589,NaN
145935,24.0222,19.9996,0.00280706,885.924,0.000701766,221.481,NaN
147167,23.987,20,0.0027768,889.365,0.0006942,222.341,NaN
148485,24.0075,19.9997,0.00274644,893.004,0.00068661,223.251,NaN
149831,24.0296,20.0003,0.00272081,896.683,0.000680203,224.171,NaN
151210,23.9875,20.0003,0.0026939,900.415,0.000673476,225.104,NaN
152434,23.9808,19.9999,0.00266641,903.698,0.000666603,225.925,NaN
153823,23.9638,19.9999,0.00263704,907.381,0.000659261,226.845,NaN
155126,23.9601,19.9997,0.00261268,910.801,0.00065317,227.7,NaN
156562,23.9575,19.9999,0.00258669,914.534,0.000646672,228.633,NaN
157854,23.918,19.9998,0.0025618,917.858,0.00064045,229.464,NaN
159177,23.9121,19.9997,0.0025377,921.231,0.000634425,230.308,NaN
160440,23.8909,20.0001,0.00251584,924.423,0.000628961,231.106,NaN
161780,23.8529,19.9999,0.00249716,927.781,0.000624289,231.945,NaN
163073,23.8783,20.0001,0.00247729,930.996,0.000619322,232.749,NaN
164450,23.851,19.9995,0.00245929,934.396,0.000614822,233.599,NaN
165695,23.8672,19.9995,0.0024429,937.447,0.000610726,234.362,NaN
167082,23.8535,19.9999,0.00242686,940.822,0.000606714,235.206,NaN
168364,23.7971,19.9999,0.00240945,943.924,0.000602362,235.981,NaN
169656,23.8211,19.9997,0.00239904,947.03,0.000599761,236.757,NaN
170808,23.8371,19.9997,0.00238793,949.787,0.000596983,237.447,NaN
172040,23.8813,19.9998,0.00237565,952.721,0.000593913,238.18,NaN
172591,23.8644,20,0.00237037,954.028,0.000592592,238.507,NaN
172821,23.8724,20,NaN,NaN,NaN,NaN,NaN
173147,23.8965,19.9999,NaN,NaN,NaN,NaN,NaN
173397,23.9105,19.9995,NaN,NaN,NaN,NaN,NaN
173723,23.8915,19.9994,NaN,NaN,NaN,NaN,NaN
174051,23.8942,19.9999,NaN,NaN,NaN,NaN,NaN
174391,23.8847,19.9995,NaN,NaN,NaN,NaN,NaN
174621,23.9279,19.9999,NaN,NaN,NaN,NaN,NaN
175078,23.9093,19.9994,NaN,NaN,NaN,NaN,NaN
175534,23.9122,20,NaN,NaN,NaN,NaN,NaN
175925,23.9241,19.9998,NaN,NaN,NaN,NaN,NaN
176360,23.9042,20.0002,NaN,NaN,NaN,NaN,NaN
176639,23.9276,20,NaN,NaN,NaN,NaN,NaN
177016,23.9425,19.9999,NaN,NaN,NaN,NaN,NaN
177287,23.9288,19.9998,NaN,NaN,NaN,NaN,NaN
177571,23.9427,20.0005,NaN,NaN,NaN,NaN,NaN
177896,23.9557,19.9998,NaN,NaN,NaN,NaN,NaN
178266,23.951,19.9999,NaN,NaN,NaN,NaN,NaN
178610,23.9428,19.9991,NaN,NaN,NaN,NaN,NaN
178913,23.9639,19.9993,NaN,NaN,NaN,NaN,NaN
179410,23.9511,19.9998,NaN,NaN,NaN,NaN,NaN
179900,23.9487,19.9994,NaN,NaN,NaN,NaN,NaN
180130,23.9838,20,NaN,NaN,NaN,NaN,NaN
180494,23.9735,19.9999,NaN,NaN,NaN,NaN,NaN
180758,23.9756,20.0002,NaN,NaN,NaN,NaN,NaN
180988,23.9585,19.9993,NaN,NaN,NaN,NaN,NaN
181268,23.9773,20,NaN,NaN,NaN,NaN,NaN
181633,23.9876,19.9994,NaN,NaN,NaN,NaN,NaN
181893,23.9537,19.9998,NaN,NaN,NaN,NaN,NaN
182275,24.0146,19.9997,NaN,NaN,NaN,NaN,NaN
182727,23.9968,20.0001,NaN,NaN,NaN,NaN,NaN
183007,24.0288,19.9997,NaN,NaN,NaN,NaN,NaN
183254,23.9997,20,NaN,NaN,NaN,NaN,NaN
183653,24.017,19.9997,NaN,NaN,NaN,NaN,NaN
183902,24.0149,19.9998,NaN,NaN,NaN,NaN,NaN
184175,24.0296,20,NaN,NaN,NaN,NaN,NaN
184495,23.9926,19.9998,NaN,NaN,NaN,NaN,NaN
184754,24.0131,19.9996,NaN,NaN,NaN,NaN,NaN
185044,24.0466,19.9998,NaN,NaN,NaN,NaN,NaN
185382,24.1075,20.0002,NaN,NaN,NaN,NaN,NaN
185728,24.1636,19.9999,NaN,NaN,NaN,NaN,NaN
186020,24.168,20.0001,NaN,NaN,NaN,NaN,NaN
186308,24.2285,20.0002,NaN,NaN,NaN,NaN,NaN